"rt","stimulus","button_pressed","test_part","trial_type","trial_index","time_elapsed","internal_node_id","subject","session","experiment_name","complete","totalTime","key_press","currentStim","recognized","aha"
"42815","<div style='word-wrap: break-word; width: 900px'><h3>Please consider this information carefully before deciding whether to participate in this research</h3><ul style='text-align: left; font-size: .8em;'><li><b>Purpose of the research</b>: To examine how people process images.</li><li><b>What you will do in this research</b>:  Stimuli (images) will be presented on the computer and you will be asked different questions about them.</li><li><b>Time required</b>: Participation will take max 60 minutes to complete.</li><li><b>Risks</b>:  There are no anticipated risks associated with participating in this study. The effects of participating should be comparable to those you would experience from viewing a computer monitor for 60 minutes and using a mouse or keyboard.</li><li><b>Benefits</b>:  This study provides no benefits to you individually. The study provides important information about the nature of perception and learning.</li><li><b>Confidentiality</b>:  Your participation in this study will remain confidential. No personally identifiable information will be associated with your data. Your de-identified data may be shared with other researchers and used in future projects.</li><li><b>Participation and withdrawal</b>:  Your participation in this study is completely voluntary and you may refuse to participate or you may choose to withdraw at any time without penalty.</li><li><b>How to contact the researchers</b>: If you have questions or concerns about your participation or payment, or want to request a summary of research findings, please contact Sander Van de Cruys (KU Leuven), at sander.vandecruys@kuleuven.be.</li></ul><p>The nature and purpose of this research have been sufficiently explained and I agree to participate in this study.  I understand that I am free to withdraw at any time without incurring any penalty.</p><p>Please consent by clicking the button below to continue. Otherwise, please exit the study at this time.</p></div>","0","instructions","html-button-response","0","42816","0.0-0.0","ck","1","pretest","true","6733601","","","",""
"99435","<div style='word-wrap: break-word; width: 900px'><h3>Instructions</h3><p>In this experiment you will see a series of distorted images like the one below on the left. As you can see in the righthand image, the distorted images are derived from actual photographs.In what follows, you will <strong>briefly</strong> be presented with <strong>only</strong> the distorted image.</p> <div style='float: left; margin-right: 20px;'><img src='../img/018tt.jpg' height='250' width='250'></img></div><div style='float: right; margin-left: 20px;'><img src='../img/018gs.jpg' height='250' width='250'></img></div><p>To be useful for future research, we need to select those images that people can generally not solve on their own. Therefore we'll show you the distorted image and ask you to indicate (yes or no) whether you already recognized what was in the image. This is not a competition, so please respond truthfully. We don't ask or check your answer, we just want to know whether you think you recognized it. All images depict objects from one of these broad level categories: animals, inanimate objects, plants, sports, vehicles, and food. Recognizing means knowing more than these broad labels for a given image. It means knowing at least the basic level category of the main object in the image, for example when you see a parrot in the image, 'parrot' will obviously be a correct answer but also correct is 'bird', but not 'animal' (the broad level category). For the example above, 'rose' would be correct or 'flower', but not 'plant'. When soccer players are depicted, you don't recognize the image when you just see 'humans', 'outdoors', or 'sports'. Note that complete certainty about your answer is not necessary, it's enough to have a good, definite guess on the object, to say 'yes, I recognized it'.</p><p>One additional question will be asked after we've revealed the solution: You'll be asked to indicate how strong your <strong>aha-experience</strong> was. This describes the positive 'click' you sometimes experience, when the pieces of the 'puzzle' fall together and you suddenly have 'insight' in the image. It describes how good you felt the 'fit' was between the distorted image and the solution.</p><p>Press any key to start.</p></div>","","instructions","html-keyboard-response","1","142253","0.0-1.0","ck","1","pretest","true","6733601","32","","",""
"null","<div style=""font-size:60px;""> </div>","","fixation","html-keyboard-response","2","142455","0.0-2.0-0.0","ck","1","pretest","true","6733601","null","","",""
"null","../img/tt/1095tt.jpg","","mooney1","image-keyboard-response","3","145458","0.0-2.0-1.0","ck","1","pretest","true","6733601","null","../img/tt/1095tt.jpg","",""
"4609","<p></p>","","recognized","html-keyboard-response","4","150068","0.0-2.0-2.0","ck","1","pretest","true","6733601","78","../img/tt/1095tt.jpg","n",""
"null","../img/gs/1095gs.jpg","","solution","image-keyboard-response","5","152072","0.0-2.0-3.0","ck","1","pretest","true","6733601","null","","",""
"null","../img/tt/1095tt.jpg","","mooney2","image-keyboard-response","6","154075","0.0-2.0-4.0","ck","1","pretest","true","6733601","null","","",""
"22506","<p>How strong was your <strong>aha-experience</strong>?</p>","","aha","html-keyboard-response","7","176582","0.0-2.0-5.0","ck","1","pretest","true","6733601","51","../img/tt/1095tt.jpg","","3"
"null","<div style=""font-size:60px;""> </div>","","fixation","html-keyboard-response","8","176785","0.0-2.0-0.1","ck","1","pretest","true","6733601","null","","",""
"null","../img/tt/1153tt.jpg","","mooney1","image-keyboard-response","9","179789","0.0-2.0-1.1","ck","1","pretest","true","6733601","null","../img/tt/1153tt.jpg","",""
"1709","<p></p>","","recognized","html-keyboard-response","10","181499","0.0-2.0-2.1","ck","1","pretest","true","6733601","78","../img/tt/1153tt.jpg","n",""
"null","../img/gs/1153gs.jpg","","solution","image-keyboard-response","11","183503","0.0-2.0-3.1","ck","1","pretest","true","6733601","null","","",""
"null","../img/tt/1153tt.jpg","","mooney2","image-keyboard-response","12","185506","0.0-2.0-4.1","ck","1","pretest","true","6733601","null","","",""
"8579","<p>How strong was your <strong>aha-experience</strong>?</p>","","aha","html-keyboard-response","13","194087","0.0-2.0-5.1","ck","1","pretest","true","6733601","52","../img/tt/1153tt.jpg","","4"
"null","<div style=""font-size:60px;""> </div>","","fixation","html-keyboard-response","14","194290","0.0-2.0-0.2","ck","1","pretest","true","6733601","null","","",""
"null","../img/tt/1107tt.jpg","","mooney1","image-keyboard-response","15","197293","0.0-2.0-1.2","ck","1","pretest","true","6733601","null","../img/tt/1107tt.jpg","",""
"2243","<p></p>","","recognized","html-keyboard-response","16","199536","0.0-2.0-2.2","ck","1","pretest","true","6733601","78","../img/tt/1107tt.jpg","n",""
"null","../img/gs/1107gs.jpg","","solution","image-keyboard-response","17","201540","0.0-2.0-3.2","ck","1","pretest","true","6733601","null","","",""
"null","../img/tt/1107tt.jpg","","mooney2","image-keyboard-response","18","203543","0.0-2.0-4.2","ck","1","pretest","true","6733601","null","","",""
"2184","<p>How strong was your <strong>aha-experience</strong>?</p>","","aha","html-keyboard-response","19","205728","0.0-2.0-5.2","ck","1","pretest","true","6733601","53","../img/tt/1107tt.jpg","","5"
"null","<div style=""font-size:60px;""> </div>","","fixation","html-keyboard-response","20","205930","0.0-2.0-0.3","ck","1","pretest","true","6733601","null","","",""
"null","../img/tt/1040tt.jpg","","mooney1","image-keyboard-response","21","208934","0.0-2.0-1.3","ck","1","pretest","true","6733601","null","../img/tt/1040tt.jpg","",""
"2432","<p></p>","","recognized","html-keyboard-response","22","211367","0.0-2.0-2.3","ck","1","pretest","true","6733601","78","../img/tt/1040tt.jpg","n",""
"null","../img/gs/1040gs.jpg","","solution","image-keyboard-response","23","213371","0.0-2.0-3.3","ck","1","pretest","true","6733601","null","","",""
"null","../img/tt/1040tt.jpg","","mooney2","image-keyboard-response","24","215374","0.0-2.0-4.3","ck","1","pretest","true","6733601","null","","",""
"2431","<p>How strong was your <strong>aha-experience</strong>?</p>","","aha","html-keyboard-response","25","217807","0.0-2.0-5.3","ck","1","pretest","true","6733601","51","../img/tt/1040tt.jpg","","3"
"null","<div style=""font-size:60px;""> </div>","","fixation","html-keyboard-response","26","218009","0.0-2.0-0.4","ck","1","pretest","true","6733601","null","","",""
"null","../img/tt/1272tt.jpg","","mooney1","image-keyboard-response","27","221013","0.0-2.0-1.4","ck","1","pretest","true","6733601","null","../img/tt/1272tt.jpg","",""
"1107","<p></p>","","recognized","html-keyboard-response","28","222121","0.0-2.0-2.4","ck","1","pretest","true","6733601","78","../img/tt/1272tt.jpg","n",""
"null","../img/gs/1272gs.jpg","","solution","image-keyboard-response","29","224125","0.0-2.0-3.4","ck","1","pretest","true","6733601","null","","",""
"null","../img/tt/1272tt.jpg","","mooney2","image-keyboard-response","30","226128","0.0-2.0-4.4","ck","1","pretest","true","6733601","null","","",""
"1260","<p>How strong was your <strong>aha-experience</strong>?</p>","","aha","html-keyboard-response","31","227389","0.0-2.0-5.4","ck","1","pretest","true","6733601","50","../img/tt/1272tt.jpg","","2"
"null","<div style=""font-size:60px;""> </div>","","fixation","html-keyboard-response","32","227591","0.0-2.0-0.5","ck","1","pretest","true","6733601","null","","",""
"null","../img/tt/1274tt.jpg","","mooney1","image-keyboard-response","33","230595","0.0-2.0-1.5","ck","1","pretest","true","6733601","null","../img/tt/1274tt.jpg","",""
"698","<p></p>","","recognized","html-keyboard-response","34","231294","0.0-2.0-2.5","ck","1","pretest","true","6733601","89","../img/tt/1274tt.jpg","y",""
"null","../img/gs/1274gs.jpg","","solution","image-keyboard-response","35","233297","0.0-2.0-3.5","ck","1","pretest","true","6733601","null","","",""
"null","../img/tt/1274tt.jpg","","mooney2","image-keyboard-response","36","235300","0.0-2.0-4.5","ck","1","pretest","true","6733601","null","","",""
"820","<p>How strong was your <strong>aha-experience</strong>?</p>","","aha","html-keyboard-response","37","236122","0.0-2.0-5.5","ck","1","pretest","true","6733601","49","../img/tt/1274tt.jpg","","1"
"null","<div style=""font-size:60px;""> </div>","","fixation","html-keyboard-response","38","236323","0.0-2.0-0.6","ck","1","pretest","true","6733601","null","","",""
"null","../img/tt/1024tt.jpg","","mooney1","image-keyboard-response","39","239326","0.0-2.0-1.6","ck","1","pretest","true","6733601","null","../img/tt/1024tt.jpg","",""
"1241","<p></p>","","recognized","html-keyboard-response","40","240569","0.0-2.0-2.6","ck","1","pretest","true","6733601","89","../img/tt/1024tt.jpg","y",""
"null","../img/gs/1024gs.jpg","","solution","image-keyboard-response","41","242573","0.0-2.0-3.6","ck","1","pretest","true","6733601","null","","",""
"null","../img/tt/1024tt.jpg","","mooney2","image-keyboard-response","42","244576","0.0-2.0-4.6","ck","1","pretest","true","6733601","null","","",""
"1611","<p>How strong was your <strong>aha-experience</strong>?</p>","","aha","html-keyboard-response","43","246187","0.0-2.0-5.6","ck","1","pretest","true","6733601","50","../img/tt/1024tt.jpg","","2"
"null","<div style=""font-size:60px;""> </div>","","fixation","html-keyboard-response","44","246389","0.0-2.0-0.7","ck","1","pretest","true","6733601","null","","",""
"null","../img/tt/121tt.jpg","","mooney1","image-keyboard-response","45","249393","0.0-2.0-1.7","ck","1","pretest","true","6733601","null","../img/tt/121tt.jpg","",""
"1067","<p></p>","","recognized","html-keyboard-response","46","250461","0.0-2.0-2.7","ck","1","pretest","true","6733601","78","../img/tt/121tt.jpg","n",""
"null","../img/gs/121gs.jpg","","solution","image-keyboard-response","47","252465","0.0-2.0-3.7","ck","1","pretest","true","6733601","null","","",""
"null","../img/tt/121tt.jpg","","mooney2","image-keyboard-response","48","254468","0.0-2.0-4.7","ck","1","pretest","true","6733601","null","","",""
"1314","<p>How strong was your <strong>aha-experience</strong>?</p>","","aha","html-keyboard-response","49","255784","0.0-2.0-5.7","ck","1","pretest","true","6733601","53","../img/tt/121tt.jpg","","5"
"null","<div style=""font-size:60px;""> </div>","","fixation","html-keyboard-response","50","255986","0.0-2.0-0.8","ck","1","pretest","true","6733601","null","","",""
"null","../img/tt/1043tt.jpg","","mooney1","image-keyboard-response","51","258990","0.0-2.0-1.8","ck","1","pretest","true","6733601","null","../img/tt/1043tt.jpg","",""
"1431","<p></p>","","recognized","html-keyboard-response","52","260422","0.0-2.0-2.8","ck","1","pretest","true","6733601","78","../img/tt/1043tt.jpg","n",""
"null","../img/gs/1043gs.jpg","","solution","image-keyboard-response","53","262425","0.0-2.0-3.8","ck","1","pretest","true","6733601","null","","",""
"null","../img/tt/1043tt.jpg","","mooney2","image-keyboard-response","54","264427","0.0-2.0-4.8","ck","1","pretest","true","6733601","null","","",""
"1432","<p>How strong was your <strong>aha-experience</strong>?</p>","","aha","html-keyboard-response","55","265860","0.0-2.0-5.8","ck","1","pretest","true","6733601","53","../img/tt/1043tt.jpg","","5"
"null","<div style=""font-size:60px;""> </div>","","fixation","html-keyboard-response","56","266063","0.0-2.0-0.9","ck","1","pretest","true","6733601","null","","",""
"null","../img/tt/1137tt.jpg","","mooney1","image-keyboard-response","57","269066","0.0-2.0-1.9","ck","1","pretest","true","6733601","null","../img/tt/1137tt.jpg","",""
"442","<p></p>","","recognized","html-keyboard-response","58","269509","0.0-2.0-2.9","ck","1","pretest","true","6733601","89","../img/tt/1137tt.jpg","y",""
"null","../img/gs/1137gs.jpg","","solution","image-keyboard-response","59","271513","0.0-2.0-3.9","ck","1","pretest","true","6733601","null","","",""
"null","../img/tt/1137tt.jpg","","mooney2","image-keyboard-response","60","273516","0.0-2.0-4.9","ck","1","pretest","true","6733601","null","","",""
"3266","<p>How strong was your <strong>aha-experience</strong>?</p>","","aha","html-keyboard-response","61","276783","0.0-2.0-5.9","ck","1","pretest","true","6733601","49","../img/tt/1137tt.jpg","","1"
"null","<div style=""font-size:60px;""> </div>","","fixation","html-keyboard-response","62","276985","0.0-2.0-0.10","ck","1","pretest","true","6733601","null","","",""
"null","../img/tt/1047tt.jpg","","mooney1","image-keyboard-response","63","279988","0.0-2.0-1.10","ck","1","pretest","true","6733601","null","../img/tt/1047tt.jpg","",""
"1811","<p></p>","","recognized","html-keyboard-response","64","281801","0.0-2.0-2.10","ck","1","pretest","true","6733601","78","../img/tt/1047tt.jpg","n",""
"null","../img/gs/1047gs.jpg","","solution","image-keyboard-response","65","283804","0.0-2.0-3.10","ck","1","pretest","true","6733601","null","","",""
"null","../img/tt/1047tt.jpg","","mooney2","image-keyboard-response","66","285808","0.0-2.0-4.10","ck","1","pretest","true","6733601","null","","",""
"1274","<p>How strong was your <strong>aha-experience</strong>?</p>","","aha","html-keyboard-response","67","287082","0.0-2.0-5.10","ck","1","pretest","true","6733601","51","../img/tt/1047tt.jpg","","3"
"null","<div style=""font-size:60px;""> </div>","","fixation","html-keyboard-response","68","287284","0.0-2.0-0.11","ck","1","pretest","true","6733601","null","","",""
"null","../img/tt/1263tt.jpg","","mooney1","image-keyboard-response","69","290288","0.0-2.0-1.11","ck","1","pretest","true","6733601","null","../img/tt/1263tt.jpg","",""
"859","<p></p>","","recognized","html-keyboard-response","70","291148","0.0-2.0-2.11","ck","1","pretest","true","6733601","89","../img/tt/1263tt.jpg","y",""
"null","../img/gs/1263gs.jpg","","solution","image-keyboard-response","71","293152","0.0-2.0-3.11","ck","1","pretest","true","6733601","null","","",""
"null","../img/tt/1263tt.jpg","","mooney2","image-keyboard-response","72","295155","0.0-2.0-4.11","ck","1","pretest","true","6733601","null","","",""
"440","<p>How strong was your <strong>aha-experience</strong>?</p>","","aha","html-keyboard-response","73","295596","0.0-2.0-5.11","ck","1","pretest","true","6733601","50","../img/tt/1263tt.jpg","","2"
"null","<div style=""font-size:60px;""> </div>","","fixation","html-keyboard-response","74","295798","0.0-2.0-0.12","ck","1","pretest","true","6733601","null","","",""
"null","../img/tt/1223tt.jpg","","mooney1","image-keyboard-response","75","298800","0.0-2.0-1.12","ck","1","pretest","true","6733601","null","../img/tt/1223tt.jpg","",""
"1773","<p></p>","","recognized","html-keyboard-response","76","300575","0.0-2.0-2.12","ck","1","pretest","true","6733601","89","../img/tt/1223tt.jpg","y",""
"null","../img/gs/1223gs.jpg","","solution","image-keyboard-response","77","302579","0.0-2.0-3.12","ck","1","pretest","true","6733601","null","","",""
"null","../img/tt/1223tt.jpg","","mooney2","image-keyboard-response","78","304582","0.0-2.0-4.12","ck","1","pretest","true","6733601","null","","",""
"738","<p>How strong was your <strong>aha-experience</strong>?</p>","","aha","html-keyboard-response","79","305321","0.0-2.0-5.12","ck","1","pretest","true","6733601","51","../img/tt/1223tt.jpg","","3"
"null","<div style=""font-size:60px;""> </div>","","fixation","html-keyboard-response","80","305523","0.0-2.0-0.13","ck","1","pretest","true","6733601","null","","",""
"null","../img/tt/1140tt.jpg","","mooney1","image-keyboard-response","81","308527","0.0-2.0-1.13","ck","1","pretest","true","6733601","null","../img/tt/1140tt.jpg","",""
"739","<p></p>","","recognized","html-keyboard-response","82","309267","0.0-2.0-2.13","ck","1","pretest","true","6733601","89","../img/tt/1140tt.jpg","y",""
"null","../img/gs/1140gs.jpg","","solution","image-keyboard-response","83","311270","0.0-2.0-3.13","ck","1","pretest","true","6733601","null","","",""
"null","../img/tt/1140tt.jpg","","mooney2","image-keyboard-response","84","313273","0.0-2.0-4.13","ck","1","pretest","true","6733601","null","","",""
"756","<p>How strong was your <strong>aha-experience</strong>?</p>","","aha","html-keyboard-response","85","314030","0.0-2.0-5.13","ck","1","pretest","true","6733601","49","../img/tt/1140tt.jpg","","1"
"null","<div style=""font-size:60px;""> </div>","","fixation","html-keyboard-response","86","314232","0.0-2.0-0.14","ck","1","pretest","true","6733601","null","","",""
"null","../img/tt/036tt.jpg","","mooney1","image-keyboard-response","87","317235","0.0-2.0-1.14","ck","1","pretest","true","6733601","null","../img/tt/036tt.jpg","",""
"840","<p></p>","","recognized","html-keyboard-response","88","318075","0.0-2.0-2.14","ck","1","pretest","true","6733601","78","../img/tt/036tt.jpg","n",""
"null","../img/gs/036gs.jpg","","solution","image-keyboard-response","89","320079","0.0-2.0-3.14","ck","1","pretest","true","6733601","null","","",""
"null","../img/tt/036tt.jpg","","mooney2","image-keyboard-response","90","322082","0.0-2.0-4.14","ck","1","pretest","true","6733601","null","","",""
"1271","<p>How strong was your <strong>aha-experience</strong>?</p>","","aha","html-keyboard-response","91","323355","0.0-2.0-5.14","ck","1","pretest","true","6733601","53","../img/tt/036tt.jpg","","5"
"null","<div style=""font-size:60px;""> </div>","","fixation","html-keyboard-response","92","323557","0.0-2.0-0.15","ck","1","pretest","true","6733601","null","","",""
"null","../img/tt/1203tt.jpg","","mooney1","image-keyboard-response","93","326560","0.0-2.0-1.15","ck","1","pretest","true","6733601","null","../img/tt/1203tt.jpg","",""
"1331","<p></p>","","recognized","html-keyboard-response","94","327892","0.0-2.0-2.15","ck","1","pretest","true","6733601","89","../img/tt/1203tt.jpg","y",""
"null","../img/gs/1203gs.jpg","","solution","image-keyboard-response","95","329896","0.0-2.0-3.15","ck","1","pretest","true","6733601","null","","",""
"null","../img/tt/1203tt.jpg","","mooney2","image-keyboard-response","96","331899","0.0-2.0-4.15","ck","1","pretest","true","6733601","null","","",""
"5862","<p>How strong was your <strong>aha-experience</strong>?</p>","","aha","html-keyboard-response","97","337763","0.0-2.0-5.15","ck","1","pretest","true","6733601","51","../img/tt/1203tt.jpg","","3"
"null","<div style=""font-size:60px;""> </div>","","fixation","html-keyboard-response","98","337965","0.0-2.0-0.16","ck","1","pretest","true","6733601","null","","",""
"null","../img/tt/1167tt.jpg","","mooney1","image-keyboard-response","99","340968","0.0-2.0-1.16","ck","1","pretest","true","6733601","null","../img/tt/1167tt.jpg","",""
"546","<p></p>","","recognized","html-keyboard-response","100","341514","0.0-2.0-2.16","ck","1","pretest","true","6733601","89","../img/tt/1167tt.jpg","y",""
"null","../img/gs/1167gs.jpg","","solution","image-keyboard-response","101","343518","0.0-2.0-3.16","ck","1","pretest","true","6733601","null","","",""
"null","../img/tt/1167tt.jpg","","mooney2","image-keyboard-response","102","345521","0.0-2.0-4.16","ck","1","pretest","true","6733601","null","","",""
"408","<p>How strong was your <strong>aha-experience</strong>?</p>","","aha","html-keyboard-response","103","345931","0.0-2.0-5.16","ck","1","pretest","true","6733601","49","../img/tt/1167tt.jpg","","1"
"null","<div style=""font-size:60px;""> </div>","","fixation","html-keyboard-response","104","346133","0.0-2.0-0.17","ck","1","pretest","true","6733601","null","","",""
"null","../img/tt/1122tt.jpg","","mooney1","image-keyboard-response","105","349136","0.0-2.0-1.17","ck","1","pretest","true","6733601","null","../img/tt/1122tt.jpg","",""
"969","<p></p>","","recognized","html-keyboard-response","106","350106","0.0-2.0-2.17","ck","1","pretest","true","6733601","78","../img/tt/1122tt.jpg","n",""
"null","../img/gs/1122gs.jpg","","solution","image-keyboard-response","107","352108","0.0-2.0-3.17","ck","1","pretest","true","6733601","null","","",""
"null","../img/tt/1122tt.jpg","","mooney2","image-keyboard-response","108","354111","0.0-2.0-4.17","ck","1","pretest","true","6733601","null","","",""
"2810","<p>How strong was your <strong>aha-experience</strong>?</p>","","aha","html-keyboard-response","109","356923","0.0-2.0-5.17","ck","1","pretest","true","6733601","53","../img/tt/1122tt.jpg","","5"
"null","<div style=""font-size:60px;""> </div>","","fixation","html-keyboard-response","110","357125","0.0-2.0-0.18","ck","1","pretest","true","6733601","null","","",""
"null","../img/tt/074tt.jpg","","mooney1","image-keyboard-response","111","360129","0.0-2.0-1.18","ck","1","pretest","true","6733601","null","../img/tt/074tt.jpg","",""
"549","<p></p>","","recognized","html-keyboard-response","112","360679","0.0-2.0-2.18","ck","1","pretest","true","6733601","89","../img/tt/074tt.jpg","y",""
"null","../img/gs/074gs.jpg","","solution","image-keyboard-response","113","362683","0.0-2.0-3.18","ck","1","pretest","true","6733601","null","","",""
"null","../img/tt/074tt.jpg","","mooney2","image-keyboard-response","114","364686","0.0-2.0-4.18","ck","1","pretest","true","6733601","null","","",""
"466","<p>How strong was your <strong>aha-experience</strong>?</p>","","aha","html-keyboard-response","115","365154","0.0-2.0-5.18","ck","1","pretest","true","6733601","49","../img/tt/074tt.jpg","","1"
"null","<div style=""font-size:60px;""> </div>","","fixation","html-keyboard-response","116","365356","0.0-2.0-0.19","ck","1","pretest","true","6733601","null","","",""
"null","../img/tt/1252tt.jpg","","mooney1","image-keyboard-response","117","368359","0.0-2.0-1.19","ck","1","pretest","true","6733601","null","../img/tt/1252tt.jpg","",""
"1102","<p></p>","","recognized","html-keyboard-response","118","369463","0.0-2.0-2.19","ck","1","pretest","true","6733601","89","../img/tt/1252tt.jpg","y",""
"null","../img/gs/1252gs.jpg","","solution","image-keyboard-response","119","371467","0.0-2.0-3.19","ck","1","pretest","true","6733601","null","","",""
"null","../img/tt/1252tt.jpg","","mooney2","image-keyboard-response","120","373470","0.0-2.0-4.19","ck","1","pretest","true","6733601","null","","",""
"678","<p>How strong was your <strong>aha-experience</strong>?</p>","","aha","html-keyboard-response","121","374150","0.0-2.0-5.19","ck","1","pretest","true","6733601","49","../img/tt/1252tt.jpg","","1"
"null","<div style=""font-size:60px;""> </div>","","fixation","html-keyboard-response","122","374352","0.0-2.0-0.20","ck","1","pretest","true","6733601","null","","",""
"null","../img/tt/1015tt.jpg","","mooney1","image-keyboard-response","123","377356","0.0-2.0-1.20","ck","1","pretest","true","6733601","null","../img/tt/1015tt.jpg","",""
"902","<p></p>","","recognized","html-keyboard-response","124","378259","0.0-2.0-2.20","ck","1","pretest","true","6733601","89","../img/tt/1015tt.jpg","y",""
"null","../img/gs/1015gs.jpg","","solution","image-keyboard-response","125","380263","0.0-2.0-3.20","ck","1","pretest","true","6733601","null","","",""
"null","../img/tt/1015tt.jpg","","mooney2","image-keyboard-response","126","382266","0.0-2.0-4.20","ck","1","pretest","true","6733601","null","","",""
"380","<p>How strong was your <strong>aha-experience</strong>?</p>","","aha","html-keyboard-response","127","382647","0.0-2.0-5.20","ck","1","pretest","true","6733601","49","../img/tt/1015tt.jpg","","1"
"null","<div style=""font-size:60px;""> </div>","","fixation","html-keyboard-response","128","382849","0.0-2.0-0.21","ck","1","pretest","true","6733601","null","","",""
"null","../img/tt/1183tt.jpg","","mooney1","image-keyboard-response","129","385852","0.0-2.0-1.21","ck","1","pretest","true","6733601","null","../img/tt/1183tt.jpg","",""
"1349","<p></p>","","recognized","html-keyboard-response","130","387202","0.0-2.0-2.21","ck","1","pretest","true","6733601","89","../img/tt/1183tt.jpg","y",""
"null","../img/gs/1183gs.jpg","","solution","image-keyboard-response","131","389206","0.0-2.0-3.21","ck","1","pretest","true","6733601","null","","",""
"null","../img/tt/1183tt.jpg","","mooney2","image-keyboard-response","132","391209","0.0-2.0-4.21","ck","1","pretest","true","6733601","null","","",""
"436","<p>How strong was your <strong>aha-experience</strong>?</p>","","aha","html-keyboard-response","133","391646","0.0-2.0-5.21","ck","1","pretest","true","6733601","49","../img/tt/1183tt.jpg","","1"
"null","<div style=""font-size:60px;""> </div>","","fixation","html-keyboard-response","134","391848","0.0-2.0-0.22","ck","1","pretest","true","6733601","null","","",""
"null","../img/tt/1217tt.jpg","","mooney1","image-keyboard-response","135","394851","0.0-2.0-1.22","ck","1","pretest","true","6733601","null","../img/tt/1217tt.jpg","",""
"1385","<p></p>","","recognized","html-keyboard-response","136","396236","0.0-2.0-2.22","ck","1","pretest","true","6733601","89","../img/tt/1217tt.jpg","y",""
"null","../img/gs/1217gs.jpg","","solution","image-keyboard-response","137","398240","0.0-2.0-3.22","ck","1","pretest","true","6733601","null","","",""
"null","../img/tt/1217tt.jpg","","mooney2","image-keyboard-response","138","400243","0.0-2.0-4.22","ck","1","pretest","true","6733601","null","","",""
"1624","<p>How strong was your <strong>aha-experience</strong>?</p>","","aha","html-keyboard-response","139","401869","0.0-2.0-5.22","ck","1","pretest","true","6733601","51","../img/tt/1217tt.jpg","","3"
"null","<div style=""font-size:60px;""> </div>","","fixation","html-keyboard-response","140","402071","0.0-2.0-0.23","ck","1","pretest","true","6733601","null","","",""
"null","../img/tt/1073tt.jpg","","mooney1","image-keyboard-response","141","405075","0.0-2.0-1.23","ck","1","pretest","true","6733601","null","../img/tt/1073tt.jpg","",""
"744","<p></p>","","recognized","html-keyboard-response","142","405820","0.0-2.0-2.23","ck","1","pretest","true","6733601","89","../img/tt/1073tt.jpg","y",""
"null","../img/gs/1073gs.jpg","","solution","image-keyboard-response","143","407824","0.0-2.0-3.23","ck","1","pretest","true","6733601","null","","",""
"null","../img/tt/1073tt.jpg","","mooney2","image-keyboard-response","144","409827","0.0-2.0-4.23","ck","1","pretest","true","6733601","null","","",""
"415","<p>How strong was your <strong>aha-experience</strong>?</p>","","aha","html-keyboard-response","145","410243","0.0-2.0-5.23","ck","1","pretest","true","6733601","49","../img/tt/1073tt.jpg","","1"
"null","<div style=""font-size:60px;""> </div>","","fixation","html-keyboard-response","146","410444","0.0-2.0-0.24","ck","1","pretest","true","6733601","null","","",""
"null","../img/tt/1146tt.jpg","","mooney1","image-keyboard-response","147","413448","0.0-2.0-1.24","ck","1","pretest","true","6733601","null","../img/tt/1146tt.jpg","",""
"1643","<p></p>","","recognized","html-keyboard-response","148","415092","0.0-2.0-2.24","ck","1","pretest","true","6733601","78","../img/tt/1146tt.jpg","n",""
"null","../img/gs/1146gs.jpg","","solution","image-keyboard-response","149","417095","0.0-2.0-3.24","ck","1","pretest","true","6733601","null","","",""
"null","../img/tt/1146tt.jpg","","mooney2","image-keyboard-response","150","419099","0.0-2.0-4.24","ck","1","pretest","true","6733601","null","","",""
"538","<p>How strong was your <strong>aha-experience</strong>?</p>","","aha","html-keyboard-response","151","419638","0.0-2.0-5.24","ck","1","pretest","true","6733601","54","../img/tt/1146tt.jpg","","6"
"null","<div style=""font-size:60px;""> </div>","","fixation","html-keyboard-response","152","419841","0.0-2.0-0.25","ck","1","pretest","true","6733601","null","","",""
"null","../img/tt/122tt.jpg","","mooney1","image-keyboard-response","153","422844","0.0-2.0-1.25","ck","1","pretest","true","6733601","null","../img/tt/122tt.jpg","",""
"1380","<p></p>","","recognized","html-keyboard-response","154","424225","0.0-2.0-2.25","ck","1","pretest","true","6733601","78","../img/tt/122tt.jpg","n",""
"null","../img/gs/122gs.jpg","","solution","image-keyboard-response","155","426228","0.0-2.0-3.25","ck","1","pretest","true","6733601","null","","",""
"null","../img/tt/122tt.jpg","","mooney2","image-keyboard-response","156","428231","0.0-2.0-4.25","ck","1","pretest","true","6733601","null","","",""
"465","<p>How strong was your <strong>aha-experience</strong>?</p>","","aha","html-keyboard-response","157","428697","0.0-2.0-5.25","ck","1","pretest","true","6733601","54","../img/tt/122tt.jpg","","6"
"null","<div style=""font-size:60px;""> </div>","","fixation","html-keyboard-response","158","428897","0.0-2.0-0.26","ck","1","pretest","true","6733601","null","","",""
"null","../img/tt/055tt.jpg","","mooney1","image-keyboard-response","159","431901","0.0-2.0-1.26","ck","1","pretest","true","6733601","null","../img/tt/055tt.jpg","",""
"1032","<p></p>","","recognized","html-keyboard-response","160","432934","0.0-2.0-2.26","ck","1","pretest","true","6733601","78","../img/tt/055tt.jpg","n",""
"null","../img/gs/055gs.jpg","","solution","image-keyboard-response","161","434938","0.0-2.0-3.26","ck","1","pretest","true","6733601","null","","",""
"null","../img/tt/055tt.jpg","","mooney2","image-keyboard-response","162","436941","0.0-2.0-4.26","ck","1","pretest","true","6733601","null","","",""
"702","<p>How strong was your <strong>aha-experience</strong>?</p>","","aha","html-keyboard-response","163","437644","0.0-2.0-5.26","ck","1","pretest","true","6733601","52","../img/tt/055tt.jpg","","4"
"null","<div style=""font-size:60px;""> </div>","","fixation","html-keyboard-response","164","437846","0.0-2.0-0.27","ck","1","pretest","true","6733601","null","","",""
"null","../img/tt/1078tt.jpg","","mooney1","image-keyboard-response","165","440848","0.0-2.0-1.27","ck","1","pretest","true","6733601","null","../img/tt/1078tt.jpg","",""
"1604","<p></p>","","recognized","html-keyboard-response","166","442453","0.0-2.0-2.27","ck","1","pretest","true","6733601","78","../img/tt/1078tt.jpg","n",""
"null","../img/gs/1078gs.jpg","","solution","image-keyboard-response","167","444457","0.0-2.0-3.27","ck","1","pretest","true","6733601","null","","",""
"null","../img/tt/1078tt.jpg","","mooney2","image-keyboard-response","168","446460","0.0-2.0-4.27","ck","1","pretest","true","6733601","null","","",""
"538","<p>How strong was your <strong>aha-experience</strong>?</p>","","aha","html-keyboard-response","169","446999","0.0-2.0-5.27","ck","1","pretest","true","6733601","53","../img/tt/1078tt.jpg","","5"
"null","<div style=""font-size:60px;""> </div>","","fixation","html-keyboard-response","170","447200","0.0-2.0-0.28","ck","1","pretest","true","6733601","null","","",""
"null","../img/tt/103tt.jpg","","mooney1","image-keyboard-response","171","450204","0.0-2.0-1.28","ck","1","pretest","true","6733601","null","../img/tt/103tt.jpg","",""
"1278","<p></p>","","recognized","html-keyboard-response","172","451483","0.0-2.0-2.28","ck","1","pretest","true","6733601","78","../img/tt/103tt.jpg","n",""
"null","../img/gs/103gs.jpg","","solution","image-keyboard-response","173","453487","0.0-2.0-3.28","ck","1","pretest","true","6733601","null","","",""
"null","../img/tt/103tt.jpg","","mooney2","image-keyboard-response","174","455490","0.0-2.0-4.28","ck","1","pretest","true","6733601","null","","",""
"2774","<p>How strong was your <strong>aha-experience</strong>?</p>","","aha","html-keyboard-response","175","458265","0.0-2.0-5.28","ck","1","pretest","true","6733601","53","../img/tt/103tt.jpg","","5"
"null","<div style=""font-size:60px;""> </div>","","fixation","html-keyboard-response","176","458467","0.0-2.0-0.29","ck","1","pretest","true","6733601","null","","",""
"null","../img/tt/019tt.jpg","","mooney1","image-keyboard-response","177","461470","0.0-2.0-1.29","ck","1","pretest","true","6733601","null","../img/tt/019tt.jpg","",""
"1415","<p></p>","","recognized","html-keyboard-response","178","462887","0.0-2.0-2.29","ck","1","pretest","true","6733601","78","../img/tt/019tt.jpg","n",""
"null","../img/gs/019gs.jpg","","solution","image-keyboard-response","179","464890","0.0-2.0-3.29","ck","1","pretest","true","6733601","null","","",""
"null","../img/tt/019tt.jpg","","mooney2","image-keyboard-response","180","466892","0.0-2.0-4.29","ck","1","pretest","true","6733601","null","","",""
"1786","<p>How strong was your <strong>aha-experience</strong>?</p>","","aha","html-keyboard-response","181","468679","0.0-2.0-5.29","ck","1","pretest","true","6733601","52","../img/tt/019tt.jpg","","4"
"null","<div style=""font-size:60px;""> </div>","","fixation","html-keyboard-response","182","468881","0.0-2.0-0.30","ck","1","pretest","true","6733601","null","","",""
"null","../img/tt/1270tt.jpg","","mooney1","image-keyboard-response","183","471884","0.0-2.0-1.30","ck","1","pretest","true","6733601","null","../img/tt/1270tt.jpg","",""
"1107","<p></p>","","recognized","html-keyboard-response","184","472993","0.0-2.0-2.30","ck","1","pretest","true","6733601","78","../img/tt/1270tt.jpg","n",""
"null","../img/gs/1270gs.jpg","","solution","image-keyboard-response","185","474997","0.0-2.0-3.30","ck","1","pretest","true","6733601","null","","",""
"null","../img/tt/1270tt.jpg","","mooney2","image-keyboard-response","186","477000","0.0-2.0-4.30","ck","1","pretest","true","6733601","null","","",""
"1212","<p>How strong was your <strong>aha-experience</strong>?</p>","","aha","html-keyboard-response","187","478213","0.0-2.0-5.30","ck","1","pretest","true","6733601","52","../img/tt/1270tt.jpg","","4"
"null","<div style=""font-size:60px;""> </div>","","fixation","html-keyboard-response","188","478415","0.0-2.0-0.31","ck","1","pretest","true","6733601","null","","",""
"null","../img/tt/1199tt.jpg","","mooney1","image-keyboard-response","189","481419","0.0-2.0-1.31","ck","1","pretest","true","6733601","null","../img/tt/1199tt.jpg","",""
"1765","<p></p>","","recognized","html-keyboard-response","190","483185","0.0-2.0-2.31","ck","1","pretest","true","6733601","78","../img/tt/1199tt.jpg","n",""
"null","../img/gs/1199gs.jpg","","solution","image-keyboard-response","191","485189","0.0-2.0-3.31","ck","1","pretest","true","6733601","null","","",""
"null","../img/tt/1199tt.jpg","","mooney2","image-keyboard-response","192","487192","0.0-2.0-4.31","ck","1","pretest","true","6733601","null","","",""
"446","<p>How strong was your <strong>aha-experience</strong>?</p>","","aha","html-keyboard-response","193","487639","0.0-2.0-5.31","ck","1","pretest","true","6733601","53","../img/tt/1199tt.jpg","","5"
"null","<div style=""font-size:60px;""> </div>","","fixation","html-keyboard-response","194","487841","0.0-2.0-0.32","ck","1","pretest","true","6733601","null","","",""
"null","../img/tt/085tt.jpg","","mooney1","image-keyboard-response","195","490844","0.0-2.0-1.32","ck","1","pretest","true","6733601","null","../img/tt/085tt.jpg","",""
"996","<p></p>","","recognized","html-keyboard-response","196","491840","0.0-2.0-2.32","ck","1","pretest","true","6733601","78","../img/tt/085tt.jpg","n",""
"null","../img/gs/085gs.jpg","","solution","image-keyboard-response","197","493844","0.0-2.0-3.32","ck","1","pretest","true","6733601","null","","",""
"null","../img/tt/085tt.jpg","","mooney2","image-keyboard-response","198","495847","0.0-2.0-4.32","ck","1","pretest","true","6733601","null","","",""
"524","<p>How strong was your <strong>aha-experience</strong>?</p>","","aha","html-keyboard-response","199","496372","0.0-2.0-5.32","ck","1","pretest","true","6733601","52","../img/tt/085tt.jpg","","4"
"null","<div style=""font-size:60px;""> </div>","","fixation","html-keyboard-response","200","496574","0.0-2.0-0.33","ck","1","pretest","true","6733601","null","","",""
"null","../img/tt/1016tt.jpg","","mooney1","image-keyboard-response","201","499577","0.0-2.0-1.33","ck","1","pretest","true","6733601","null","../img/tt/1016tt.jpg","",""
"414","<p></p>","","recognized","html-keyboard-response","202","499992","0.0-2.0-2.33","ck","1","pretest","true","6733601","89","../img/tt/1016tt.jpg","y",""
"null","../img/gs/1016gs.jpg","","solution","image-keyboard-response","203","501996","0.0-2.0-3.33","ck","1","pretest","true","6733601","null","","",""
"null","../img/tt/1016tt.jpg","","mooney2","image-keyboard-response","204","504000","0.0-2.0-4.33","ck","1","pretest","true","6733601","null","","",""
"448","<p>How strong was your <strong>aha-experience</strong>?</p>","","aha","html-keyboard-response","205","504448","0.0-2.0-5.33","ck","1","pretest","true","6733601","49","../img/tt/1016tt.jpg","","1"
"null","<div style=""font-size:60px;""> </div>","","fixation","html-keyboard-response","206","504650","0.0-2.0-0.34","ck","1","pretest","true","6733601","null","","",""
"null","../img/tt/1260tt.jpg","","mooney1","image-keyboard-response","207","507653","0.0-2.0-1.34","ck","1","pretest","true","6733601","null","../img/tt/1260tt.jpg","",""
"767","<p></p>","","recognized","html-keyboard-response","208","508422","0.0-2.0-2.34","ck","1","pretest","true","6733601","78","../img/tt/1260tt.jpg","n",""
"null","../img/gs/1260gs.jpg","","solution","image-keyboard-response","209","510426","0.0-2.0-3.34","ck","1","pretest","true","6733601","null","","",""
"null","../img/tt/1260tt.jpg","","mooney2","image-keyboard-response","210","512428","0.0-2.0-4.34","ck","1","pretest","true","6733601","null","","",""
"754","<p>How strong was your <strong>aha-experience</strong>?</p>","","aha","html-keyboard-response","211","513183","0.0-2.0-5.34","ck","1","pretest","true","6733601","51","../img/tt/1260tt.jpg","","3"
"null","<div style=""font-size:60px;""> </div>","","fixation","html-keyboard-response","212","513384","0.0-2.0-0.35","ck","1","pretest","true","6733601","null","","",""
"null","../img/tt/1121tt.jpg","","mooney1","image-keyboard-response","213","516387","0.0-2.0-1.35","ck","1","pretest","true","6733601","null","../img/tt/1121tt.jpg","",""
"1095","<p></p>","","recognized","html-keyboard-response","214","517483","0.0-2.0-2.35","ck","1","pretest","true","6733601","78","../img/tt/1121tt.jpg","n",""
"null","../img/gs/1121gs.jpg","","solution","image-keyboard-response","215","519487","0.0-2.0-3.35","ck","1","pretest","true","6733601","null","","",""
"null","../img/tt/1121tt.jpg","","mooney2","image-keyboard-response","216","521490","0.0-2.0-4.35","ck","1","pretest","true","6733601","null","","",""
"1223","<p>How strong was your <strong>aha-experience</strong>?</p>","","aha","html-keyboard-response","217","522714","0.0-2.0-5.35","ck","1","pretest","true","6733601","51","../img/tt/1121tt.jpg","","3"
"null","<div style=""font-size:60px;""> </div>","","fixation","html-keyboard-response","218","522916","0.0-2.0-0.36","ck","1","pretest","true","6733601","null","","",""
"null","../img/tt/1041tt.jpg","","mooney1","image-keyboard-response","219","525920","0.0-2.0-1.36","ck","1","pretest","true","6733601","null","../img/tt/1041tt.jpg","",""
"987","<p></p>","","recognized","html-keyboard-response","220","526908","0.0-2.0-2.36","ck","1","pretest","true","6733601","89","../img/tt/1041tt.jpg","y",""
"null","../img/gs/1041gs.jpg","","solution","image-keyboard-response","221","528911","0.0-2.0-3.36","ck","1","pretest","true","6733601","null","","",""
"null","../img/tt/1041tt.jpg","","mooney2","image-keyboard-response","222","530914","0.0-2.0-4.36","ck","1","pretest","true","6733601","null","","",""
"581","<p>How strong was your <strong>aha-experience</strong>?</p>","","aha","html-keyboard-response","223","531496","0.0-2.0-5.36","ck","1","pretest","true","6733601","49","../img/tt/1041tt.jpg","","1"
"null","<div style=""font-size:60px;""> </div>","","fixation","html-keyboard-response","224","531698","0.0-2.0-0.37","ck","1","pretest","true","6733601","null","","",""
"null","../img/tt/086tt.jpg","","mooney1","image-keyboard-response","225","534702","0.0-2.0-1.37","ck","1","pretest","true","6733601","null","../img/tt/086tt.jpg","",""
"942","<p></p>","","recognized","html-keyboard-response","226","535645","0.0-2.0-2.37","ck","1","pretest","true","6733601","89","../img/tt/086tt.jpg","y",""
"null","../img/gs/086gs.jpg","","solution","image-keyboard-response","227","537649","0.0-2.0-3.37","ck","1","pretest","true","6733601","null","","",""
"null","../img/tt/086tt.jpg","","mooney2","image-keyboard-response","228","539652","0.0-2.0-4.37","ck","1","pretest","true","6733601","null","","",""
"1852791","<p>How strong was your <strong>aha-experience</strong>?</p>","","aha","html-keyboard-response","229","2392444","0.0-2.0-5.37","ck","1","pretest","true","6733601","49","../img/tt/086tt.jpg","","1"
"null","<div style=""font-size:60px;""> </div>","","fixation","html-keyboard-response","230","2392646","0.0-2.0-0.38","ck","1","pretest","true","6733601","null","","",""
"null","../img/tt/1231tt.jpg","","mooney1","image-keyboard-response","231","2395652","0.0-2.0-1.38","ck","1","pretest","true","6733601","null","../img/tt/1231tt.jpg","",""
"390","<p></p>","","recognized","html-keyboard-response","232","2396043","0.0-2.0-2.38","ck","1","pretest","true","6733601","89","../img/tt/1231tt.jpg","y",""
"null","../img/gs/1231gs.jpg","","solution","image-keyboard-response","233","2398046","0.0-2.0-3.38","ck","1","pretest","true","6733601","null","","",""
"null","../img/tt/1231tt.jpg","","mooney2","image-keyboard-response","234","2400050","0.0-2.0-4.38","ck","1","pretest","true","6733601","null","","",""
"4002","<p>How strong was your <strong>aha-experience</strong>?</p>","","aha","html-keyboard-response","235","2404053","0.0-2.0-5.38","ck","1","pretest","true","6733601","50","../img/tt/1231tt.jpg","","2"
"null","<div style=""font-size:60px;""> </div>","","fixation","html-keyboard-response","236","2404254","0.0-2.0-0.39","ck","1","pretest","true","6733601","null","","",""
"null","../img/tt/1143tt.jpg","","mooney1","image-keyboard-response","237","2407258","0.0-2.0-1.39","ck","1","pretest","true","6733601","null","../img/tt/1143tt.jpg","",""
"447","<p></p>","","recognized","html-keyboard-response","238","2407705","0.0-2.0-2.39","ck","1","pretest","true","6733601","89","../img/tt/1143tt.jpg","y",""
"null","../img/gs/1143gs.jpg","","solution","image-keyboard-response","239","2409709","0.0-2.0-3.39","ck","1","pretest","true","6733601","null","","",""
"null","../img/tt/1143tt.jpg","","mooney2","image-keyboard-response","240","2411712","0.0-2.0-4.39","ck","1","pretest","true","6733601","null","","",""
"431","<p>How strong was your <strong>aha-experience</strong>?</p>","","aha","html-keyboard-response","241","2412145","0.0-2.0-5.39","ck","1","pretest","true","6733601","49","../img/tt/1143tt.jpg","","1"
"null","<div style=""font-size:60px;""> </div>","","fixation","html-keyboard-response","242","2412346","0.0-2.0-0.40","ck","1","pretest","true","6733601","null","","",""
"null","../img/tt/1063tt.jpg","","mooney1","image-keyboard-response","243","2415349","0.0-2.0-1.40","ck","1","pretest","true","6733601","null","../img/tt/1063tt.jpg","",""
"483","<p></p>","","recognized","html-keyboard-response","244","2415833","0.0-2.0-2.40","ck","1","pretest","true","6733601","89","../img/tt/1063tt.jpg","y",""
"null","../img/gs/1063gs.jpg","","solution","image-keyboard-response","245","2417837","0.0-2.0-3.40","ck","1","pretest","true","6733601","null","","",""
"null","../img/tt/1063tt.jpg","","mooney2","image-keyboard-response","246","2419840","0.0-2.0-4.40","ck","1","pretest","true","6733601","null","","",""
"358","<p>How strong was your <strong>aha-experience</strong>?</p>","","aha","html-keyboard-response","247","2420200","0.0-2.0-5.40","ck","1","pretest","true","6733601","50","../img/tt/1063tt.jpg","","2"
"null","<div style=""font-size:60px;""> </div>","","fixation","html-keyboard-response","248","2420401","0.0-2.0-0.41","ck","1","pretest","true","6733601","null","","",""
"null","../img/tt/1294tt.jpg","","mooney1","image-keyboard-response","249","2423405","0.0-2.0-1.41","ck","1","pretest","true","6733601","null","../img/tt/1294tt.jpg","",""
"337","<p></p>","","recognized","html-keyboard-response","250","2423742","0.0-2.0-2.41","ck","1","pretest","true","6733601","89","../img/tt/1294tt.jpg","y",""
"null","../img/gs/1294gs.jpg","","solution","image-keyboard-response","251","2425746","0.0-2.0-3.41","ck","1","pretest","true","6733601","null","","",""
"null","../img/tt/1294tt.jpg","","mooney2","image-keyboard-response","252","2427749","0.0-2.0-4.41","ck","1","pretest","true","6733601","null","","",""
"846","<p>How strong was your <strong>aha-experience</strong>?</p>","","aha","html-keyboard-response","253","2428596","0.0-2.0-5.41","ck","1","pretest","true","6733601","49","../img/tt/1294tt.jpg","","1"
"null","<div style=""font-size:60px;""> </div>","","fixation","html-keyboard-response","254","2428798","0.0-2.0-0.42","ck","1","pretest","true","6733601","null","","",""
"null","../img/tt/100tt.jpg","","mooney1","image-keyboard-response","255","2431801","0.0-2.0-1.42","ck","1","pretest","true","6733601","null","../img/tt/100tt.jpg","",""
"628","<p></p>","","recognized","html-keyboard-response","256","2432430","0.0-2.0-2.42","ck","1","pretest","true","6733601","89","../img/tt/100tt.jpg","y",""
"null","../img/gs/100gs.jpg","","solution","image-keyboard-response","257","2434433","0.0-2.0-3.42","ck","1","pretest","true","6733601","null","","",""
"null","../img/tt/100tt.jpg","","mooney2","image-keyboard-response","258","2436436","0.0-2.0-4.42","ck","1","pretest","true","6733601","null","","",""
"2150","<p>How strong was your <strong>aha-experience</strong>?</p>","","aha","html-keyboard-response","259","2438588","0.0-2.0-5.42","ck","1","pretest","true","6733601","50","../img/tt/100tt.jpg","","2"
"null","<div style=""font-size:60px;""> </div>","","fixation","html-keyboard-response","260","2438790","0.0-2.0-0.43","ck","1","pretest","true","6733601","null","","",""
"null","../img/tt/1053tt.jpg","","mooney1","image-keyboard-response","261","2441793","0.0-2.0-1.43","ck","1","pretest","true","6733601","null","../img/tt/1053tt.jpg","",""
"445","<p></p>","","recognized","html-keyboard-response","262","2442239","0.0-2.0-2.43","ck","1","pretest","true","6733601","78","../img/tt/1053tt.jpg","n",""
"null","../img/gs/1053gs.jpg","","solution","image-keyboard-response","263","2444242","0.0-2.0-3.43","ck","1","pretest","true","6733601","null","","",""
"null","../img/tt/1053tt.jpg","","mooney2","image-keyboard-response","264","2446246","0.0-2.0-4.43","ck","1","pretest","true","6733601","null","","",""
"467","<p>How strong was your <strong>aha-experience</strong>?</p>","","aha","html-keyboard-response","265","2446714","0.0-2.0-5.43","ck","1","pretest","true","6733601","51","../img/tt/1053tt.jpg","","3"
"null","<div style=""font-size:60px;""> </div>","","fixation","html-keyboard-response","266","2446916","0.0-2.0-0.44","ck","1","pretest","true","6733601","null","","",""
"null","../img/tt/118tt.jpg","","mooney1","image-keyboard-response","267","2449920","0.0-2.0-1.44","ck","1","pretest","true","6733601","null","../img/tt/118tt.jpg","",""
"418","<p></p>","","recognized","html-keyboard-response","268","2450339","0.0-2.0-2.44","ck","1","pretest","true","6733601","78","../img/tt/118tt.jpg","n",""
"null","../img/gs/118gs.jpg","","solution","image-keyboard-response","269","2452343","0.0-2.0-3.44","ck","1","pretest","true","6733601","null","","",""
"null","../img/tt/118tt.jpg","","mooney2","image-keyboard-response","270","2454346","0.0-2.0-4.44","ck","1","pretest","true","6733601","null","","",""
"1389","<p>How strong was your <strong>aha-experience</strong>?</p>","","aha","html-keyboard-response","271","2455736","0.0-2.0-5.44","ck","1","pretest","true","6733601","50","../img/tt/118tt.jpg","","2"
"null","<div style=""font-size:60px;""> </div>","","fixation","html-keyboard-response","272","2455938","0.0-2.0-0.45","ck","1","pretest","true","6733601","null","","",""
"null","../img/tt/1236tt.jpg","","mooney1","image-keyboard-response","273","2458942","0.0-2.0-1.45","ck","1","pretest","true","6733601","null","../img/tt/1236tt.jpg","",""
"377","<p></p>","","recognized","html-keyboard-response","274","2459319","0.0-2.0-2.45","ck","1","pretest","true","6733601","78","../img/tt/1236tt.jpg","n",""
"null","../img/gs/1236gs.jpg","","solution","image-keyboard-response","275","2461323","0.0-2.0-3.45","ck","1","pretest","true","6733601","null","","",""
"null","../img/tt/1236tt.jpg","","mooney2","image-keyboard-response","276","2463326","0.0-2.0-4.45","ck","1","pretest","true","6733601","null","","",""
"2054","<p>How strong was your <strong>aha-experience</strong>?</p>","","aha","html-keyboard-response","277","2465382","0.0-2.0-5.45","ck","1","pretest","true","6733601","52","../img/tt/1236tt.jpg","","4"
"null","<div style=""font-size:60px;""> </div>","","fixation","html-keyboard-response","278","2465584","0.0-2.0-0.46","ck","1","pretest","true","6733601","null","","",""
"null","../img/tt/043tt.jpg","","mooney1","image-keyboard-response","279","2468587","0.0-2.0-1.46","ck","1","pretest","true","6733601","null","../img/tt/043tt.jpg","",""
"567","<p></p>","","recognized","html-keyboard-response","280","2469156","0.0-2.0-2.46","ck","1","pretest","true","6733601","78","../img/tt/043tt.jpg","n",""
"null","../img/gs/043gs.jpg","","solution","image-keyboard-response","281","2471159","0.0-2.0-3.46","ck","1","pretest","true","6733601","null","","",""
"null","../img/tt/043tt.jpg","","mooney2","image-keyboard-response","282","2473162","0.0-2.0-4.46","ck","1","pretest","true","6733601","null","","",""
"1580","<p>How strong was your <strong>aha-experience</strong>?</p>","","aha","html-keyboard-response","283","2474744","0.0-2.0-5.46","ck","1","pretest","true","6733601","52","../img/tt/043tt.jpg","","4"
"null","<div style=""font-size:60px;""> </div>","","fixation","html-keyboard-response","284","2474946","0.0-2.0-0.47","ck","1","pretest","true","6733601","null","","",""
"null","../img/tt/1262tt.jpg","","mooney1","image-keyboard-response","285","2477950","0.0-2.0-1.47","ck","1","pretest","true","6733601","null","../img/tt/1262tt.jpg","",""
"349","<p></p>","","recognized","html-keyboard-response","286","2478300","0.0-2.0-2.47","ck","1","pretest","true","6733601","78","../img/tt/1262tt.jpg","n",""
"null","../img/gs/1262gs.jpg","","solution","image-keyboard-response","287","2480303","0.0-2.0-3.47","ck","1","pretest","true","6733601","null","","",""
"null","../img/tt/1262tt.jpg","","mooney2","image-keyboard-response","288","2482307","0.0-2.0-4.47","ck","1","pretest","true","6733601","null","","",""
"330","<p>How strong was your <strong>aha-experience</strong>?</p>","","aha","html-keyboard-response","289","2482638","0.0-2.0-5.47","ck","1","pretest","true","6733601","51","../img/tt/1262tt.jpg","","3"
"null","<div style=""font-size:60px;""> </div>","","fixation","html-keyboard-response","290","2482839","0.0-2.0-0.48","ck","1","pretest","true","6733601","null","","",""
"null","../img/tt/1207tt.jpg","","mooney1","image-keyboard-response","291","2485842","0.0-2.0-1.48","ck","1","pretest","true","6733601","null","../img/tt/1207tt.jpg","",""
"570","<p></p>","","recognized","html-keyboard-response","292","2486413","0.0-2.0-2.48","ck","1","pretest","true","6733601","89","../img/tt/1207tt.jpg","y",""
"null","../img/gs/1207gs.jpg","","solution","image-keyboard-response","293","2488417","0.0-2.0-3.48","ck","1","pretest","true","6733601","null","","",""
"null","../img/tt/1207tt.jpg","","mooney2","image-keyboard-response","294","2490420","0.0-2.0-4.48","ck","1","pretest","true","6733601","null","","",""
"417","<p>How strong was your <strong>aha-experience</strong>?</p>","","aha","html-keyboard-response","295","2490837","0.0-2.0-5.48","ck","1","pretest","true","6733601","50","../img/tt/1207tt.jpg","","2"
"null","<div style=""font-size:60px;""> </div>","","fixation","html-keyboard-response","296","2491040","0.0-2.0-0.49","ck","1","pretest","true","6733601","null","","",""
"null","../img/tt/1198tt.jpg","","mooney1","image-keyboard-response","297","2494043","0.0-2.0-1.49","ck","1","pretest","true","6733601","null","../img/tt/1198tt.jpg","",""
"1015","<p></p>","","recognized","html-keyboard-response","298","2495059","0.0-2.0-2.49","ck","1","pretest","true","6733601","78","../img/tt/1198tt.jpg","n",""
"null","../img/gs/1198gs.jpg","","solution","image-keyboard-response","299","2497063","0.0-2.0-3.49","ck","1","pretest","true","6733601","null","","",""
"null","../img/tt/1198tt.jpg","","mooney2","image-keyboard-response","300","2499066","0.0-2.0-4.49","ck","1","pretest","true","6733601","null","","",""
"480","<p>How strong was your <strong>aha-experience</strong>?</p>","","aha","html-keyboard-response","301","2499548","0.0-2.0-5.49","ck","1","pretest","true","6733601","52","../img/tt/1198tt.jpg","","4"
"null","<div style=""font-size:60px;""> </div>","","fixation","html-keyboard-response","302","2499750","0.0-2.0-0.50","ck","1","pretest","true","6733601","null","","",""
"null","../img/tt/068tt.jpg","","mooney1","image-keyboard-response","303","2502756","0.0-2.0-1.50","ck","1","pretest","true","6733601","null","../img/tt/068tt.jpg","",""
"378","<p></p>","","recognized","html-keyboard-response","304","2503135","0.0-2.0-2.50","ck","1","pretest","true","6733601","89","../img/tt/068tt.jpg","y",""
"null","../img/gs/068gs.jpg","","solution","image-keyboard-response","305","2505141","0.0-2.0-3.50","ck","1","pretest","true","6733601","null","","",""
"null","../img/tt/068tt.jpg","","mooney2","image-keyboard-response","306","2507145","0.0-2.0-4.50","ck","1","pretest","true","6733601","null","","",""
"435","<p>How strong was your <strong>aha-experience</strong>?</p>","","aha","html-keyboard-response","307","2507581","0.0-2.0-5.50","ck","1","pretest","true","6733601","50","../img/tt/068tt.jpg","","2"
"null","<div style=""font-size:60px;""> </div>","","fixation","html-keyboard-response","308","2507783","0.0-2.0-0.51","ck","1","pretest","true","6733601","null","","",""
"null","../img/tt/1160tt.jpg","","mooney1","image-keyboard-response","309","2510790","0.0-2.0-1.51","ck","1","pretest","true","6733601","null","../img/tt/1160tt.jpg","",""
"152557","<p></p>","","recognized","html-keyboard-response","310","2663348","0.0-2.0-2.51","ck","1","pretest","true","6733601","89","../img/tt/1160tt.jpg","y",""
"null","../img/gs/1160gs.jpg","","solution","image-keyboard-response","311","2665352","0.0-2.0-3.51","ck","1","pretest","true","6733601","null","","",""
"null","../img/tt/1160tt.jpg","","mooney2","image-keyboard-response","312","2667356","0.0-2.0-4.51","ck","1","pretest","true","6733601","null","","",""
"606","<p>How strong was your <strong>aha-experience</strong>?</p>","","aha","html-keyboard-response","313","2667963","0.0-2.0-5.51","ck","1","pretest","true","6733601","49","../img/tt/1160tt.jpg","","1"
"null","<div style=""font-size:60px;""> </div>","","fixation","html-keyboard-response","314","2668165","0.0-2.0-0.52","ck","1","pretest","true","6733601","null","","",""
"null","../img/tt/1196tt.jpg","","mooney1","image-keyboard-response","315","2671167","0.0-2.0-1.52","ck","1","pretest","true","6733601","null","../img/tt/1196tt.jpg","",""
"55630","<p></p>","","recognized","html-keyboard-response","316","2726799","0.0-2.0-2.52","ck","1","pretest","true","6733601","78","../img/tt/1196tt.jpg","n",""
"null","../img/gs/1196gs.jpg","","solution","image-keyboard-response","317","2728803","0.0-2.0-3.52","ck","1","pretest","true","6733601","null","","",""
"null","../img/tt/1196tt.jpg","","mooney2","image-keyboard-response","318","2730806","0.0-2.0-4.52","ck","1","pretest","true","6733601","null","","",""
"423","<p>How strong was your <strong>aha-experience</strong>?</p>","","aha","html-keyboard-response","319","2731229","0.0-2.0-5.52","ck","1","pretest","true","6733601","53","../img/tt/1196tt.jpg","","5"
"null","<div style=""font-size:60px;""> </div>","","fixation","html-keyboard-response","320","2731432","0.0-2.0-0.53","ck","1","pretest","true","6733601","null","","",""
"null","../img/tt/1147tt.jpg","","mooney1","image-keyboard-response","321","2734434","0.0-2.0-1.53","ck","1","pretest","true","6733601","null","../img/tt/1147tt.jpg","",""
"492","<p></p>","","recognized","html-keyboard-response","322","2734927","0.0-2.0-2.53","ck","1","pretest","true","6733601","89","../img/tt/1147tt.jpg","y",""
"null","../img/gs/1147gs.jpg","","solution","image-keyboard-response","323","2736931","0.0-2.0-3.53","ck","1","pretest","true","6733601","null","","",""
"null","../img/tt/1147tt.jpg","","mooney2","image-keyboard-response","324","2738934","0.0-2.0-4.53","ck","1","pretest","true","6733601","null","","",""
"349","<p>How strong was your <strong>aha-experience</strong>?</p>","","aha","html-keyboard-response","325","2739283","0.0-2.0-5.53","ck","1","pretest","true","6733601","49","../img/tt/1147tt.jpg","","1"
"null","<div style=""font-size:60px;""> </div>","","fixation","html-keyboard-response","326","2739486","0.0-2.0-0.54","ck","1","pretest","true","6733601","null","","",""
"null","../img/tt/1234tt.jpg","","mooney1","image-keyboard-response","327","2742489","0.0-2.0-1.54","ck","1","pretest","true","6733601","null","../img/tt/1234tt.jpg","",""
"427","<p></p>","","recognized","html-keyboard-response","328","2742917","0.0-2.0-2.54","ck","1","pretest","true","6733601","78","../img/tt/1234tt.jpg","n",""
"null","../img/gs/1234gs.jpg","","solution","image-keyboard-response","329","2744921","0.0-2.0-3.54","ck","1","pretest","true","6733601","null","","",""
"null","../img/tt/1234tt.jpg","","mooney2","image-keyboard-response","330","2746925","0.0-2.0-4.54","ck","1","pretest","true","6733601","null","","",""
"406","<p>How strong was your <strong>aha-experience</strong>?</p>","","aha","html-keyboard-response","331","2747332","0.0-2.0-5.54","ck","1","pretest","true","6733601","52","../img/tt/1234tt.jpg","","4"
"null","<div style=""font-size:60px;""> </div>","","fixation","html-keyboard-response","332","2747534","0.0-2.0-0.55","ck","1","pretest","true","6733601","null","","",""
"null","../img/tt/1070tt.jpg","","mooney1","image-keyboard-response","333","2750538","0.0-2.0-1.55","ck","1","pretest","true","6733601","null","../img/tt/1070tt.jpg","",""
"898","<p></p>","","recognized","html-keyboard-response","334","2751437","0.0-2.0-2.55","ck","1","pretest","true","6733601","89","../img/tt/1070tt.jpg","y",""
"null","../img/gs/1070gs.jpg","","solution","image-keyboard-response","335","2753440","0.0-2.0-3.55","ck","1","pretest","true","6733601","null","","",""
"null","../img/tt/1070tt.jpg","","mooney2","image-keyboard-response","336","2755443","0.0-2.0-4.55","ck","1","pretest","true","6733601","null","","",""
"346","<p>How strong was your <strong>aha-experience</strong>?</p>","","aha","html-keyboard-response","337","2755789","0.0-2.0-5.55","ck","1","pretest","true","6733601","51","../img/tt/1070tt.jpg","","3"
"null","<div style=""font-size:60px;""> </div>","","fixation","html-keyboard-response","338","2755991","0.0-2.0-0.56","ck","1","pretest","true","6733601","null","","",""
"null","../img/tt/1188tt.jpg","","mooney1","image-keyboard-response","339","2758994","0.0-2.0-1.56","ck","1","pretest","true","6733601","null","../img/tt/1188tt.jpg","",""
"341","<p></p>","","recognized","html-keyboard-response","340","2759336","0.0-2.0-2.56","ck","1","pretest","true","6733601","78","../img/tt/1188tt.jpg","n",""
"null","../img/gs/1188gs.jpg","","solution","image-keyboard-response","341","2761340","0.0-2.0-3.56","ck","1","pretest","true","6733601","null","","",""
"null","../img/tt/1188tt.jpg","","mooney2","image-keyboard-response","342","2763342","0.0-2.0-4.56","ck","1","pretest","true","6733601","null","","",""
"306","<p>How strong was your <strong>aha-experience</strong>?</p>","","aha","html-keyboard-response","343","2763648","0.0-2.0-5.56","ck","1","pretest","true","6733601","54","../img/tt/1188tt.jpg","","6"
"null","<div style=""font-size:60px;""> </div>","","fixation","html-keyboard-response","344","2763850","0.0-2.0-0.57","ck","1","pretest","true","6733601","null","","",""
"null","../img/tt/1181tt.jpg","","mooney1","image-keyboard-response","345","2766853","0.0-2.0-1.57","ck","1","pretest","true","6733601","null","../img/tt/1181tt.jpg","",""
"386","<p></p>","","recognized","html-keyboard-response","346","2767241","0.0-2.0-2.57","ck","1","pretest","true","6733601","78","../img/tt/1181tt.jpg","n",""
"null","../img/gs/1181gs.jpg","","solution","image-keyboard-response","347","2769244","0.0-2.0-3.57","ck","1","pretest","true","6733601","null","","",""
"null","../img/tt/1181tt.jpg","","mooney2","image-keyboard-response","348","2771248","0.0-2.0-4.57","ck","1","pretest","true","6733601","null","","",""
"344","<p>How strong was your <strong>aha-experience</strong>?</p>","","aha","html-keyboard-response","349","2771592","0.0-2.0-5.57","ck","1","pretest","true","6733601","52","../img/tt/1181tt.jpg","","4"
"null","<div style=""font-size:60px;""> </div>","","fixation","html-keyboard-response","350","2771794","0.0-2.0-0.58","ck","1","pretest","true","6733601","null","","",""
"null","../img/tt/069tt.jpg","","mooney1","image-keyboard-response","351","2774798","0.0-2.0-1.58","ck","1","pretest","true","6733601","null","../img/tt/069tt.jpg","",""
"376","<p></p>","","recognized","html-keyboard-response","352","2775175","0.0-2.0-2.58","ck","1","pretest","true","6733601","78","../img/tt/069tt.jpg","n",""
"null","../img/gs/069gs.jpg","","solution","image-keyboard-response","353","2777179","0.0-2.0-3.58","ck","1","pretest","true","6733601","null","","",""
"null","../img/tt/069tt.jpg","","mooney2","image-keyboard-response","354","2779182","0.0-2.0-4.58","ck","1","pretest","true","6733601","null","","",""
"365","<p>How strong was your <strong>aha-experience</strong>?</p>","","aha","html-keyboard-response","355","2779548","0.0-2.0-5.58","ck","1","pretest","true","6733601","51","../img/tt/069tt.jpg","","3"
"null","<div style=""font-size:60px;""> </div>","","fixation","html-keyboard-response","356","2779750","0.0-2.0-0.59","ck","1","pretest","true","6733601","null","","",""
"null","../img/tt/1194tt.jpg","","mooney1","image-keyboard-response","357","2782753","0.0-2.0-1.59","ck","1","pretest","true","6733601","null","../img/tt/1194tt.jpg","",""
"327","<p></p>","","recognized","html-keyboard-response","358","2783082","0.0-2.0-2.59","ck","1","pretest","true","6733601","89","../img/tt/1194tt.jpg","y",""
"null","../img/gs/1194gs.jpg","","solution","image-keyboard-response","359","2785086","0.0-2.0-3.59","ck","1","pretest","true","6733601","null","","",""
"null","../img/tt/1194tt.jpg","","mooney2","image-keyboard-response","360","2787089","0.0-2.0-4.59","ck","1","pretest","true","6733601","null","","",""
"332","<p>How strong was your <strong>aha-experience</strong>?</p>","","aha","html-keyboard-response","361","2787422","0.0-2.0-5.59","ck","1","pretest","true","6733601","49","../img/tt/1194tt.jpg","","1"
"null","<div style=""font-size:60px;""> </div>","","fixation","html-keyboard-response","362","2787624","0.0-2.0-0.60","ck","1","pretest","true","6733601","null","","",""
"null","../img/tt/1290tt.jpg","","mooney1","image-keyboard-response","363","2790627","0.0-2.0-1.60","ck","1","pretest","true","6733601","null","../img/tt/1290tt.jpg","",""
"1629","<p></p>","","recognized","html-keyboard-response","364","2792256","0.0-2.0-2.60","ck","1","pretest","true","6733601","78","../img/tt/1290tt.jpg","n",""
"null","../img/gs/1290gs.jpg","","solution","image-keyboard-response","365","2794260","0.0-2.0-3.60","ck","1","pretest","true","6733601","null","","",""
"null","../img/tt/1290tt.jpg","","mooney2","image-keyboard-response","366","2796262","0.0-2.0-4.60","ck","1","pretest","true","6733601","null","","",""
"445","<p>How strong was your <strong>aha-experience</strong>?</p>","","aha","html-keyboard-response","367","2796708","0.0-2.0-5.60","ck","1","pretest","true","6733601","53","../img/tt/1290tt.jpg","","5"
"null","<div style=""font-size:60px;""> </div>","","fixation","html-keyboard-response","368","2796910","0.0-2.0-0.61","ck","1","pretest","true","6733601","null","","",""
"null","../img/tt/1030tt.jpg","","mooney1","image-keyboard-response","369","2799913","0.0-2.0-1.61","ck","1","pretest","true","6733601","null","../img/tt/1030tt.jpg","",""
"402","<p></p>","","recognized","html-keyboard-response","370","2800316","0.0-2.0-2.61","ck","1","pretest","true","6733601","89","../img/tt/1030tt.jpg","y",""
"null","../img/gs/1030gs.jpg","","solution","image-keyboard-response","371","2802320","0.0-2.0-3.61","ck","1","pretest","true","6733601","null","","",""
"null","../img/tt/1030tt.jpg","","mooney2","image-keyboard-response","372","2804323","0.0-2.0-4.61","ck","1","pretest","true","6733601","null","","",""
"264","<p>How strong was your <strong>aha-experience</strong>?</p>","","aha","html-keyboard-response","373","2804588","0.0-2.0-5.61","ck","1","pretest","true","6733601","49","../img/tt/1030tt.jpg","","1"
"null","<div style=""font-size:60px;""> </div>","","fixation","html-keyboard-response","374","2804790","0.0-2.0-0.62","ck","1","pretest","true","6733601","null","","",""
"null","../img/tt/046tt.jpg","","mooney1","image-keyboard-response","375","2807793","0.0-2.0-1.62","ck","1","pretest","true","6733601","null","../img/tt/046tt.jpg","",""
"337","<p></p>","","recognized","html-keyboard-response","376","2808131","0.0-2.0-2.62","ck","1","pretest","true","6733601","78","../img/tt/046tt.jpg","n",""
"null","../img/gs/046gs.jpg","","solution","image-keyboard-response","377","2810135","0.0-2.0-3.62","ck","1","pretest","true","6733601","null","","",""
"null","../img/tt/046tt.jpg","","mooney2","image-keyboard-response","378","2812138","0.0-2.0-4.62","ck","1","pretest","true","6733601","null","","",""
"397","<p>How strong was your <strong>aha-experience</strong>?</p>","","aha","html-keyboard-response","379","2812537","0.0-2.0-5.62","ck","1","pretest","true","6733601","51","../img/tt/046tt.jpg","","3"
"null","<div style=""font-size:60px;""> </div>","","fixation","html-keyboard-response","380","2812739","0.0-2.0-0.63","ck","1","pretest","true","6733601","null","","",""
"null","../img/tt/1246tt.jpg","","mooney1","image-keyboard-response","381","2815743","0.0-2.0-1.63","ck","1","pretest","true","6733601","null","../img/tt/1246tt.jpg","",""
"321","<p></p>","","recognized","html-keyboard-response","382","2816065","0.0-2.0-2.63","ck","1","pretest","true","6733601","89","../img/tt/1246tt.jpg","y",""
"null","../img/gs/1246gs.jpg","","solution","image-keyboard-response","383","2818069","0.0-2.0-3.63","ck","1","pretest","true","6733601","null","","",""
"null","../img/tt/1246tt.jpg","","mooney2","image-keyboard-response","384","2820072","0.0-2.0-4.63","ck","1","pretest","true","6733601","null","","",""
"1576","<p>How strong was your <strong>aha-experience</strong>?</p>","","aha","html-keyboard-response","385","2821648","0.0-2.0-5.63","ck","1","pretest","true","6733601","50","../img/tt/1246tt.jpg","","2"
"null","<div style=""font-size:60px;""> </div>","","fixation","html-keyboard-response","386","2821851","0.0-2.0-0.64","ck","1","pretest","true","6733601","null","","",""
"null","../img/tt/020tt.jpg","","mooney1","image-keyboard-response","387","2824854","0.0-2.0-1.64","ck","1","pretest","true","6733601","null","../img/tt/020tt.jpg","",""
"1063","<p></p>","","recognized","html-keyboard-response","388","2825919","0.0-2.0-2.64","ck","1","pretest","true","6733601","78","../img/tt/020tt.jpg","n",""
"null","../img/gs/020gs.jpg","","solution","image-keyboard-response","389","2827923","0.0-2.0-3.64","ck","1","pretest","true","6733601","null","","",""
"null","../img/tt/020tt.jpg","","mooney2","image-keyboard-response","390","2829926","0.0-2.0-4.64","ck","1","pretest","true","6733601","null","","",""
"417","<p>How strong was your <strong>aha-experience</strong>?</p>","","aha","html-keyboard-response","391","2830344","0.0-2.0-5.64","ck","1","pretest","true","6733601","53","../img/tt/020tt.jpg","","5"
"null","<div style=""font-size:60px;""> </div>","","fixation","html-keyboard-response","392","2830547","0.0-2.0-0.65","ck","1","pretest","true","6733601","null","","",""
"null","../img/tt/042tt.jpg","","mooney1","image-keyboard-response","393","2833550","0.0-2.0-1.65","ck","1","pretest","true","6733601","null","../img/tt/042tt.jpg","",""
"467","<p></p>","","recognized","html-keyboard-response","394","2834019","0.0-2.0-2.65","ck","1","pretest","true","6733601","78","../img/tt/042tt.jpg","n",""
"null","../img/gs/042gs.jpg","","solution","image-keyboard-response","395","2836023","0.0-2.0-3.65","ck","1","pretest","true","6733601","null","","",""
"null","../img/tt/042tt.jpg","","mooney2","image-keyboard-response","396","2838026","0.0-2.0-4.65","ck","1","pretest","true","6733601","null","","",""
"483","<p>How strong was your <strong>aha-experience</strong>?</p>","","aha","html-keyboard-response","397","2838511","0.0-2.0-5.65","ck","1","pretest","true","6733601","52","../img/tt/042tt.jpg","","4"
"null","<div style=""font-size:60px;""> </div>","","fixation","html-keyboard-response","398","2838713","0.0-2.0-0.66","ck","1","pretest","true","6733601","null","","",""
"null","../img/tt/1093tt.jpg","","mooney1","image-keyboard-response","399","2841716","0.0-2.0-1.66","ck","1","pretest","true","6733601","null","../img/tt/1093tt.jpg","",""
"389","<p></p>","","recognized","html-keyboard-response","400","2842106","0.0-2.0-2.66","ck","1","pretest","true","6733601","89","../img/tt/1093tt.jpg","y",""
"null","../img/gs/1093gs.jpg","","solution","image-keyboard-response","401","2844110","0.0-2.0-3.66","ck","1","pretest","true","6733601","null","","",""
"null","../img/tt/1093tt.jpg","","mooney2","image-keyboard-response","402","2846114","0.0-2.0-4.66","ck","1","pretest","true","6733601","null","","",""
"320","<p>How strong was your <strong>aha-experience</strong>?</p>","","aha","html-keyboard-response","403","2846434","0.0-2.0-5.66","ck","1","pretest","true","6733601","49","../img/tt/1093tt.jpg","","1"
"null","<div style=""font-size:60px;""> </div>","","fixation","html-keyboard-response","404","2846636","0.0-2.0-0.67","ck","1","pretest","true","6733601","null","","",""
"null","../img/tt/1249tt.jpg","","mooney1","image-keyboard-response","405","2849639","0.0-2.0-1.67","ck","1","pretest","true","6733601","null","../img/tt/1249tt.jpg","",""
"514","<p></p>","","recognized","html-keyboard-response","406","2850153","0.0-2.0-2.67","ck","1","pretest","true","6733601","89","../img/tt/1249tt.jpg","y",""
"null","../img/gs/1249gs.jpg","","solution","image-keyboard-response","407","2852158","0.0-2.0-3.67","ck","1","pretest","true","6733601","null","","",""
"null","../img/tt/1249tt.jpg","","mooney2","image-keyboard-response","408","2854160","0.0-2.0-4.67","ck","1","pretest","true","6733601","null","","",""
"413","<p>How strong was your <strong>aha-experience</strong>?</p>","","aha","html-keyboard-response","409","2854574","0.0-2.0-5.67","ck","1","pretest","true","6733601","50","../img/tt/1249tt.jpg","","2"
"null","<div style=""font-size:60px;""> </div>","","fixation","html-keyboard-response","410","2854776","0.0-2.0-0.68","ck","1","pretest","true","6733601","null","","",""
"null","../img/tt/040tt.jpg","","mooney1","image-keyboard-response","411","2857779","0.0-2.0-1.68","ck","1","pretest","true","6733601","null","../img/tt/040tt.jpg","",""
"534","<p></p>","","recognized","html-keyboard-response","412","2858314","0.0-2.0-2.68","ck","1","pretest","true","6733601","78","../img/tt/040tt.jpg","n",""
"null","../img/gs/040gs.jpg","","solution","image-keyboard-response","413","2860317","0.0-2.0-3.68","ck","1","pretest","true","6733601","null","","",""
"null","../img/tt/040tt.jpg","","mooney2","image-keyboard-response","414","2862321","0.0-2.0-4.68","ck","1","pretest","true","6733601","null","","",""
"1603","<p>How strong was your <strong>aha-experience</strong>?</p>","","aha","html-keyboard-response","415","2863925","0.0-2.0-5.68","ck","1","pretest","true","6733601","54","../img/tt/040tt.jpg","","6"
"null","<div style=""font-size:60px;""> </div>","","fixation","html-keyboard-response","416","2864127","0.0-2.0-0.69","ck","1","pretest","true","6733601","null","","",""
"null","../img/tt/1046tt.jpg","","mooney1","image-keyboard-response","417","2867131","0.0-2.0-1.69","ck","1","pretest","true","6733601","null","../img/tt/1046tt.jpg","",""
"672","<p></p>","","recognized","html-keyboard-response","418","2867803","0.0-2.0-2.69","ck","1","pretest","true","6733601","78","../img/tt/1046tt.jpg","n",""
"null","../img/gs/1046gs.jpg","","solution","image-keyboard-response","419","2869807","0.0-2.0-3.69","ck","1","pretest","true","6733601","null","","",""
"null","../img/tt/1046tt.jpg","","mooney2","image-keyboard-response","420","2871810","0.0-2.0-4.69","ck","1","pretest","true","6733601","null","","",""
"518","<p>How strong was your <strong>aha-experience</strong>?</p>","","aha","html-keyboard-response","421","2872328","0.0-2.0-5.69","ck","1","pretest","true","6733601","51","../img/tt/1046tt.jpg","","3"
"null","<div style=""font-size:60px;""> </div>","","fixation","html-keyboard-response","422","2872531","0.0-2.0-0.70","ck","1","pretest","true","6733601","null","","",""
"null","../img/tt/1206tt.jpg","","mooney1","image-keyboard-response","423","2875534","0.0-2.0-1.70","ck","1","pretest","true","6733601","null","../img/tt/1206tt.jpg","",""
"772","<p></p>","","recognized","html-keyboard-response","424","2876308","0.0-2.0-2.70","ck","1","pretest","true","6733601","78","../img/tt/1206tt.jpg","n",""
"null","../img/gs/1206gs.jpg","","solution","image-keyboard-response","425","2878312","0.0-2.0-3.70","ck","1","pretest","true","6733601","null","","",""
"null","../img/tt/1206tt.jpg","","mooney2","image-keyboard-response","426","2880315","0.0-2.0-4.70","ck","1","pretest","true","6733601","null","","",""
"1367","<p>How strong was your <strong>aha-experience</strong>?</p>","","aha","html-keyboard-response","427","2881684","0.0-2.0-5.70","ck","1","pretest","true","6733601","53","../img/tt/1206tt.jpg","","5"
"null","<div style=""font-size:60px;""> </div>","","fixation","html-keyboard-response","428","2881885","0.0-2.0-0.71","ck","1","pretest","true","6733601","null","","",""
"null","../img/tt/1045tt.jpg","","mooney1","image-keyboard-response","429","2884888","0.0-2.0-1.71","ck","1","pretest","true","6733601","null","../img/tt/1045tt.jpg","",""
"427","<p></p>","","recognized","html-keyboard-response","430","2885315","0.0-2.0-2.71","ck","1","pretest","true","6733601","89","../img/tt/1045tt.jpg","y",""
"null","../img/gs/1045gs.jpg","","solution","image-keyboard-response","431","2887319","0.0-2.0-3.71","ck","1","pretest","true","6733601","null","","",""
"null","../img/tt/1045tt.jpg","","mooney2","image-keyboard-response","432","2889322","0.0-2.0-4.71","ck","1","pretest","true","6733601","null","","",""
"422","<p>How strong was your <strong>aha-experience</strong>?</p>","","aha","html-keyboard-response","433","2889746","0.0-2.0-5.71","ck","1","pretest","true","6733601","49","../img/tt/1045tt.jpg","","1"
"null","<div style=""font-size:60px;""> </div>","","fixation","html-keyboard-response","434","2889947","0.0-2.0-0.72","ck","1","pretest","true","6733601","null","","",""
"null","../img/tt/1287tt.jpg","","mooney1","image-keyboard-response","435","2892950","0.0-2.0-1.72","ck","1","pretest","true","6733601","null","../img/tt/1287tt.jpg","",""
"336","<p></p>","","recognized","html-keyboard-response","436","2893287","0.0-2.0-2.72","ck","1","pretest","true","6733601","89","../img/tt/1287tt.jpg","y",""
"null","../img/gs/1287gs.jpg","","solution","image-keyboard-response","437","2895291","0.0-2.0-3.72","ck","1","pretest","true","6733601","null","","",""
"null","../img/tt/1287tt.jpg","","mooney2","image-keyboard-response","438","2897294","0.0-2.0-4.72","ck","1","pretest","true","6733601","null","","",""
"342","<p>How strong was your <strong>aha-experience</strong>?</p>","","aha","html-keyboard-response","439","2897637","0.0-2.0-5.72","ck","1","pretest","true","6733601","49","../img/tt/1287tt.jpg","","1"
"null","<div style=""font-size:60px;""> </div>","","fixation","html-keyboard-response","440","2897839","0.0-2.0-0.73","ck","1","pretest","true","6733601","null","","",""
"null","../img/tt/1239tt.jpg","","mooney1","image-keyboard-response","441","2900841","0.0-2.0-1.73","ck","1","pretest","true","6733601","null","../img/tt/1239tt.jpg","",""
"1806","<p></p>","","recognized","html-keyboard-response","442","2902648","0.0-2.0-2.73","ck","1","pretest","true","6733601","78","../img/tt/1239tt.jpg","n",""
"null","../img/gs/1239gs.jpg","","solution","image-keyboard-response","443","2904651","0.0-2.0-3.73","ck","1","pretest","true","6733601","null","","",""
"null","../img/tt/1239tt.jpg","","mooney2","image-keyboard-response","444","2906654","0.0-2.0-4.73","ck","1","pretest","true","6733601","null","","",""
"420","<p>How strong was your <strong>aha-experience</strong>?</p>","","aha","html-keyboard-response","445","2907075","0.0-2.0-5.73","ck","1","pretest","true","6733601","52","../img/tt/1239tt.jpg","","4"
"null","<div style=""font-size:60px;""> </div>","","fixation","html-keyboard-response","446","2907277","0.0-2.0-0.74","ck","1","pretest","true","6733601","null","","",""
"null","../img/tt/1225tt.jpg","","mooney1","image-keyboard-response","447","2910280","0.0-2.0-1.74","ck","1","pretest","true","6733601","null","../img/tt/1225tt.jpg","",""
"594","<p></p>","","recognized","html-keyboard-response","448","2910875","0.0-2.0-2.74","ck","1","pretest","true","6733601","78","../img/tt/1225tt.jpg","n",""
"null","../img/gs/1225gs.jpg","","solution","image-keyboard-response","449","2912879","0.0-2.0-3.74","ck","1","pretest","true","6733601","null","","",""
"null","../img/tt/1225tt.jpg","","mooney2","image-keyboard-response","450","2914882","0.0-2.0-4.74","ck","1","pretest","true","6733601","null","","",""
"536","<p>How strong was your <strong>aha-experience</strong>?</p>","","aha","html-keyboard-response","451","2915418","0.0-2.0-5.74","ck","1","pretest","true","6733601","51","../img/tt/1225tt.jpg","","3"
"null","<div style=""font-size:60px;""> </div>","","fixation","html-keyboard-response","452","2915620","0.0-2.0-0.75","ck","1","pretest","true","6733601","null","","",""
"null","../img/tt/025tt.jpg","","mooney1","image-keyboard-response","453","2918624","0.0-2.0-1.75","ck","1","pretest","true","6733601","null","../img/tt/025tt.jpg","",""
"373","<p></p>","","recognized","html-keyboard-response","454","2918998","0.0-2.0-2.75","ck","1","pretest","true","6733601","78","../img/tt/025tt.jpg","n",""
"null","../img/gs/025gs.jpg","","solution","image-keyboard-response","455","2921002","0.0-2.0-3.75","ck","1","pretest","true","6733601","null","","",""
"null","../img/tt/025tt.jpg","","mooney2","image-keyboard-response","456","2923005","0.0-2.0-4.75","ck","1","pretest","true","6733601","null","","",""
"380","<p>How strong was your <strong>aha-experience</strong>?</p>","","aha","html-keyboard-response","457","2923386","0.0-2.0-5.75","ck","1","pretest","true","6733601","51","../img/tt/025tt.jpg","","3"
"null","<div style=""font-size:60px;""> </div>","","fixation","html-keyboard-response","458","2923589","0.0-2.0-0.76","ck","1","pretest","true","6733601","null","","",""
"null","../img/tt/1218tt.jpg","","mooney1","image-keyboard-response","459","2926592","0.0-2.0-1.76","ck","1","pretest","true","6733601","null","../img/tt/1218tt.jpg","",""
"1197","<p></p>","","recognized","html-keyboard-response","460","2927791","0.0-2.0-2.76","ck","1","pretest","true","6733601","89","../img/tt/1218tt.jpg","y",""
"null","../img/gs/1218gs.jpg","","solution","image-keyboard-response","461","2929795","0.0-2.0-3.76","ck","1","pretest","true","6733601","null","","",""
"null","../img/tt/1218tt.jpg","","mooney2","image-keyboard-response","462","2931798","0.0-2.0-4.76","ck","1","pretest","true","6733601","null","","",""
"345","<p>How strong was your <strong>aha-experience</strong>?</p>","","aha","html-keyboard-response","463","2932145","0.0-2.0-5.76","ck","1","pretest","true","6733601","50","../img/tt/1218tt.jpg","","2"
"null","<div style=""font-size:60px;""> </div>","","fixation","html-keyboard-response","464","2932346","0.0-2.0-0.77","ck","1","pretest","true","6733601","null","","",""
"null","../img/tt/1058tt.jpg","","mooney1","image-keyboard-response","465","2935350","0.0-2.0-1.77","ck","1","pretest","true","6733601","null","../img/tt/1058tt.jpg","",""
"316","<p></p>","","recognized","html-keyboard-response","466","2935667","0.0-2.0-2.77","ck","1","pretest","true","6733601","89","../img/tt/1058tt.jpg","y",""
"null","../img/gs/1058gs.jpg","","solution","image-keyboard-response","467","2937671","0.0-2.0-3.77","ck","1","pretest","true","6733601","null","","",""
"null","../img/tt/1058tt.jpg","","mooney2","image-keyboard-response","468","2939674","0.0-2.0-4.77","ck","1","pretest","true","6733601","null","","",""
"328","<p>How strong was your <strong>aha-experience</strong>?</p>","","aha","html-keyboard-response","469","2940002","0.0-2.0-5.77","ck","1","pretest","true","6733601","49","../img/tt/1058tt.jpg","","1"
"null","<div style=""font-size:60px;""> </div>","","fixation","html-keyboard-response","470","2940204","0.0-2.0-0.78","ck","1","pretest","true","6733601","null","","",""
"null","../img/tt/1172tt.jpg","","mooney1","image-keyboard-response","471","2943207","0.0-2.0-1.78","ck","1","pretest","true","6733601","null","../img/tt/1172tt.jpg","",""
"466","<p></p>","","recognized","html-keyboard-response","472","2943675","0.0-2.0-2.78","ck","1","pretest","true","6733601","89","../img/tt/1172tt.jpg","y",""
"null","../img/gs/1172gs.jpg","","solution","image-keyboard-response","473","2945679","0.0-2.0-3.78","ck","1","pretest","true","6733601","null","","",""
"null","../img/tt/1172tt.jpg","","mooney2","image-keyboard-response","474","2947681","0.0-2.0-4.78","ck","1","pretest","true","6733601","null","","",""
"992","<p>How strong was your <strong>aha-experience</strong>?</p>","","aha","html-keyboard-response","475","2948674","0.0-2.0-5.78","ck","1","pretest","true","6733601","51","../img/tt/1172tt.jpg","","3"
"null","<div style=""font-size:60px;""> </div>","","fixation","html-keyboard-response","476","2948877","0.0-2.0-0.79","ck","1","pretest","true","6733601","null","","",""
"null","../img/tt/1099tt.jpg","","mooney1","image-keyboard-response","477","2951880","0.0-2.0-1.79","ck","1","pretest","true","6733601","null","../img/tt/1099tt.jpg","",""
"533","<p></p>","","recognized","html-keyboard-response","478","2952414","0.0-2.0-2.79","ck","1","pretest","true","6733601","89","../img/tt/1099tt.jpg","y",""
"null","../img/gs/1099gs.jpg","","solution","image-keyboard-response","479","2954418","0.0-2.0-3.79","ck","1","pretest","true","6733601","null","","",""
"null","../img/tt/1099tt.jpg","","mooney2","image-keyboard-response","480","2956421","0.0-2.0-4.79","ck","1","pretest","true","6733601","null","","",""
"843","<p>How strong was your <strong>aha-experience</strong>?</p>","","aha","html-keyboard-response","481","2957264","0.0-2.0-5.79","ck","1","pretest","true","6733601","49","../img/tt/1099tt.jpg","","1"
"null","<div style=""font-size:60px;""> </div>","","fixation","html-keyboard-response","482","2957466","0.0-2.0-0.80","ck","1","pretest","true","6733601","null","","",""
"null","../img/tt/1133tt.jpg","","mooney1","image-keyboard-response","483","2960468","0.0-2.0-1.80","ck","1","pretest","true","6733601","null","../img/tt/1133tt.jpg","",""
"388","<p></p>","","recognized","html-keyboard-response","484","2960858","0.0-2.0-2.80","ck","1","pretest","true","6733601","89","../img/tt/1133tt.jpg","y",""
"null","../img/gs/1133gs.jpg","","solution","image-keyboard-response","485","2962862","0.0-2.0-3.80","ck","1","pretest","true","6733601","null","","",""
"null","../img/tt/1133tt.jpg","","mooney2","image-keyboard-response","486","2964865","0.0-2.0-4.80","ck","1","pretest","true","6733601","null","","",""
"2670","<p>How strong was your <strong>aha-experience</strong>?</p>","","aha","html-keyboard-response","487","2967537","0.0-2.0-5.80","ck","1","pretest","true","6733601","51","../img/tt/1133tt.jpg","","3"
"null","<div style=""font-size:60px;""> </div>","","fixation","html-keyboard-response","488","2967739","0.0-2.0-0.81","ck","1","pretest","true","6733601","null","","",""
"null","../img/tt/1240tt.jpg","","mooney1","image-keyboard-response","489","2970743","0.0-2.0-1.81","ck","1","pretest","true","6733601","null","../img/tt/1240tt.jpg","",""
"344","<p></p>","","recognized","html-keyboard-response","490","2971087","0.0-2.0-2.81","ck","1","pretest","true","6733601","89","../img/tt/1240tt.jpg","y",""
"null","../img/gs/1240gs.jpg","","solution","image-keyboard-response","491","2973090","0.0-2.0-3.81","ck","1","pretest","true","6733601","null","","",""
"null","../img/tt/1240tt.jpg","","mooney2","image-keyboard-response","492","2975093","0.0-2.0-4.81","ck","1","pretest","true","6733601","null","","",""
"350","<p>How strong was your <strong>aha-experience</strong>?</p>","","aha","html-keyboard-response","493","2975443","0.0-2.0-5.81","ck","1","pretest","true","6733601","49","../img/tt/1240tt.jpg","","1"
"null","<div style=""font-size:60px;""> </div>","","fixation","html-keyboard-response","494","2975645","0.0-2.0-0.82","ck","1","pretest","true","6733601","null","","",""
"null","../img/tt/1157tt.jpg","","mooney1","image-keyboard-response","495","2978647","0.0-2.0-1.82","ck","1","pretest","true","6733601","null","../img/tt/1157tt.jpg","",""
"14607","<p></p>","","recognized","html-keyboard-response","496","2993255","0.0-2.0-2.82","ck","1","pretest","true","6733601","78","../img/tt/1157tt.jpg","n",""
"null","../img/gs/1157gs.jpg","","solution","image-keyboard-response","497","2995259","0.0-2.0-3.82","ck","1","pretest","true","6733601","null","","",""
"null","../img/tt/1157tt.jpg","","mooney2","image-keyboard-response","498","2997262","0.0-2.0-4.82","ck","1","pretest","true","6733601","null","","",""
"661","<p>How strong was your <strong>aha-experience</strong>?</p>","","aha","html-keyboard-response","499","2997924","0.0-2.0-5.82","ck","1","pretest","true","6733601","52","../img/tt/1157tt.jpg","","4"
"null","<div style=""font-size:60px;""> </div>","","fixation","html-keyboard-response","500","2998126","0.0-2.0-0.83","ck","1","pretest","true","6733601","null","","",""
"null","../img/tt/1104tt.jpg","","mooney1","image-keyboard-response","501","3001128","0.0-2.0-1.83","ck","1","pretest","true","6733601","null","../img/tt/1104tt.jpg","",""
"84044","<p></p>","","recognized","html-keyboard-response","502","3085173","0.0-2.0-2.83","ck","1","pretest","true","6733601","89","../img/tt/1104tt.jpg","y",""
"null","../img/gs/1104gs.jpg","","solution","image-keyboard-response","503","3087178","0.0-2.0-3.83","ck","1","pretest","true","6733601","null","","",""
"null","../img/tt/1104tt.jpg","","mooney2","image-keyboard-response","504","3089181","0.0-2.0-4.83","ck","1","pretest","true","6733601","null","","",""
"1788","<p>How strong was your <strong>aha-experience</strong>?</p>","","aha","html-keyboard-response","505","3090970","0.0-2.0-5.83","ck","1","pretest","true","6733601","49","../img/tt/1104tt.jpg","","1"
"null","<div style=""font-size:60px;""> </div>","","fixation","html-keyboard-response","506","3091172","0.0-2.0-0.84","ck","1","pretest","true","6733601","null","","",""
"null","../img/tt/1117tt.jpg","","mooney1","image-keyboard-response","507","3094176","0.0-2.0-1.84","ck","1","pretest","true","6733601","null","../img/tt/1117tt.jpg","",""
"528","<p></p>","","recognized","html-keyboard-response","508","3094704","0.0-2.0-2.84","ck","1","pretest","true","6733601","89","../img/tt/1117tt.jpg","y",""
"null","../img/gs/1117gs.jpg","","solution","image-keyboard-response","509","3096708","0.0-2.0-3.84","ck","1","pretest","true","6733601","null","","",""
"null","../img/tt/1117tt.jpg","","mooney2","image-keyboard-response","510","3098711","0.0-2.0-4.84","ck","1","pretest","true","6733601","null","","",""
"380","<p>How strong was your <strong>aha-experience</strong>?</p>","","aha","html-keyboard-response","511","3099093","0.0-2.0-5.84","ck","1","pretest","true","6733601","49","../img/tt/1117tt.jpg","","1"
"null","<div style=""font-size:60px;""> </div>","","fixation","html-keyboard-response","512","3099295","0.0-2.0-0.85","ck","1","pretest","true","6733601","null","","",""
"null","../img/tt/033tt.jpg","","mooney1","image-keyboard-response","513","3102298","0.0-2.0-1.85","ck","1","pretest","true","6733601","null","../img/tt/033tt.jpg","",""
"458","<p></p>","","recognized","html-keyboard-response","514","3102758","0.0-2.0-2.85","ck","1","pretest","true","6733601","78","../img/tt/033tt.jpg","n",""
"null","../img/gs/033gs.jpg","","solution","image-keyboard-response","515","3104762","0.0-2.0-3.85","ck","1","pretest","true","6733601","null","","",""
"null","../img/tt/033tt.jpg","","mooney2","image-keyboard-response","516","3106765","0.0-2.0-4.85","ck","1","pretest","true","6733601","null","","",""
"1974","<p>How strong was your <strong>aha-experience</strong>?</p>","","aha","html-keyboard-response","517","3108740","0.0-2.0-5.85","ck","1","pretest","true","6733601","51","../img/tt/033tt.jpg","","3"
"null","<div style=""font-size:60px;""> </div>","","fixation","html-keyboard-response","518","3108942","0.0-2.0-0.86","ck","1","pretest","true","6733601","null","","",""
"null","../img/tt/007tt.jpg","","mooney1","image-keyboard-response","519","3111946","0.0-2.0-1.86","ck","1","pretest","true","6733601","null","../img/tt/007tt.jpg","",""
"390","<p></p>","","recognized","html-keyboard-response","520","3112337","0.0-2.0-2.86","ck","1","pretest","true","6733601","78","../img/tt/007tt.jpg","n",""
"null","../img/gs/007gs.jpg","","solution","image-keyboard-response","521","3114341","0.0-2.0-3.86","ck","1","pretest","true","6733601","null","","",""
"null","../img/tt/007tt.jpg","","mooney2","image-keyboard-response","522","3116344","0.0-2.0-4.86","ck","1","pretest","true","6733601","null","","",""
"913","<p>How strong was your <strong>aha-experience</strong>?</p>","","aha","html-keyboard-response","523","3117258","0.0-2.0-5.86","ck","1","pretest","true","6733601","51","../img/tt/007tt.jpg","","3"
"null","<div style=""font-size:60px;""> </div>","","fixation","html-keyboard-response","524","3117460","0.0-2.0-0.87","ck","1","pretest","true","6733601","null","","",""
"null","../img/tt/1106tt.jpg","","mooney1","image-keyboard-response","525","3120464","0.0-2.0-1.87","ck","1","pretest","true","6733601","null","../img/tt/1106tt.jpg","",""
"1495","<p></p>","","recognized","html-keyboard-response","526","3121960","0.0-2.0-2.87","ck","1","pretest","true","6733601","78","../img/tt/1106tt.jpg","n",""
"null","../img/gs/1106gs.jpg","","solution","image-keyboard-response","527","3123963","0.0-2.0-3.87","ck","1","pretest","true","6733601","null","","",""
"null","../img/tt/1106tt.jpg","","mooney2","image-keyboard-response","528","3125967","0.0-2.0-4.87","ck","1","pretest","true","6733601","null","","",""
"586","<p>How strong was your <strong>aha-experience</strong>?</p>","","aha","html-keyboard-response","529","3126554","0.0-2.0-5.87","ck","1","pretest","true","6733601","54","../img/tt/1106tt.jpg","","6"
"null","<div style=""font-size:60px;""> </div>","","fixation","html-keyboard-response","530","3126756","0.0-2.0-0.88","ck","1","pretest","true","6733601","null","","",""
"null","../img/tt/1009tt.jpg","","mooney1","image-keyboard-response","531","3129760","0.0-2.0-1.88","ck","1","pretest","true","6733601","null","../img/tt/1009tt.jpg","",""
"460","<p></p>","","recognized","html-keyboard-response","532","3130221","0.0-2.0-2.88","ck","1","pretest","true","6733601","89","../img/tt/1009tt.jpg","y",""
"null","../img/gs/1009gs.jpg","","solution","image-keyboard-response","533","3132225","0.0-2.0-3.88","ck","1","pretest","true","6733601","null","","",""
"null","../img/tt/1009tt.jpg","","mooney2","image-keyboard-response","534","3134228","0.0-2.0-4.88","ck","1","pretest","true","6733601","null","","",""
"383","<p>How strong was your <strong>aha-experience</strong>?</p>","","aha","html-keyboard-response","535","3134613","0.0-2.0-5.88","ck","1","pretest","true","6733601","49","../img/tt/1009tt.jpg","","1"
"null","<div style=""font-size:60px;""> </div>","","fixation","html-keyboard-response","536","3134814","0.0-2.0-0.89","ck","1","pretest","true","6733601","null","","",""
"null","../img/tt/1049tt.jpg","","mooney1","image-keyboard-response","537","3137818","0.0-2.0-1.89","ck","1","pretest","true","6733601","null","../img/tt/1049tt.jpg","",""
"329","<p></p>","","recognized","html-keyboard-response","538","3138148","0.0-2.0-2.89","ck","1","pretest","true","6733601","89","../img/tt/1049tt.jpg","y",""
"null","../img/gs/1049gs.jpg","","solution","image-keyboard-response","539","3140152","0.0-2.0-3.89","ck","1","pretest","true","6733601","null","","",""
"null","../img/tt/1049tt.jpg","","mooney2","image-keyboard-response","540","3142155","0.0-2.0-4.89","ck","1","pretest","true","6733601","null","","",""
"743","<p>How strong was your <strong>aha-experience</strong>?</p>","","aha","html-keyboard-response","541","3142899","0.0-2.0-5.89","ck","1","pretest","true","6733601","52","../img/tt/1049tt.jpg","","4"
"null","<div style=""font-size:60px;""> </div>","","fixation","html-keyboard-response","542","3143101","0.0-2.0-0.90","ck","1","pretest","true","6733601","null","","",""
"null","../img/tt/1171tt.jpg","","mooney1","image-keyboard-response","543","3146105","0.0-2.0-1.90","ck","1","pretest","true","6733601","null","../img/tt/1171tt.jpg","",""
"804","<p></p>","","recognized","html-keyboard-response","544","3146910","0.0-2.0-2.90","ck","1","pretest","true","6733601","78","../img/tt/1171tt.jpg","n",""
"null","../img/gs/1171gs.jpg","","solution","image-keyboard-response","545","3148914","0.0-2.0-3.90","ck","1","pretest","true","6733601","null","","",""
"null","../img/tt/1171tt.jpg","","mooney2","image-keyboard-response","546","3150917","0.0-2.0-4.90","ck","1","pretest","true","6733601","null","","",""
"492","<p>How strong was your <strong>aha-experience</strong>?</p>","","aha","html-keyboard-response","547","3151411","0.0-2.0-5.90","ck","1","pretest","true","6733601","53","../img/tt/1171tt.jpg","","5"
"null","<div style=""font-size:60px;""> </div>","","fixation","html-keyboard-response","548","3151613","0.0-2.0-0.91","ck","1","pretest","true","6733601","null","","",""
"null","../img/tt/1283tt.jpg","","mooney1","image-keyboard-response","549","3154617","0.0-2.0-1.91","ck","1","pretest","true","6733601","null","../img/tt/1283tt.jpg","",""
"857","<p></p>","","recognized","html-keyboard-response","550","3155475","0.0-2.0-2.91","ck","1","pretest","true","6733601","78","../img/tt/1283tt.jpg","n",""
"null","../img/gs/1283gs.jpg","","solution","image-keyboard-response","551","3157479","0.0-2.0-3.91","ck","1","pretest","true","6733601","null","","",""
"null","../img/tt/1283tt.jpg","","mooney2","image-keyboard-response","552","3159482","0.0-2.0-4.91","ck","1","pretest","true","6733601","null","","",""
"1145","<p>How strong was your <strong>aha-experience</strong>?</p>","","aha","html-keyboard-response","553","3160628","0.0-2.0-5.91","ck","1","pretest","true","6733601","51","../img/tt/1283tt.jpg","","3"
"null","<div style=""font-size:60px;""> </div>","","fixation","html-keyboard-response","554","3160830","0.0-2.0-0.92","ck","1","pretest","true","6733601","null","","",""
"null","../img/tt/1158tt.jpg","","mooney1","image-keyboard-response","555","3163833","0.0-2.0-1.92","ck","1","pretest","true","6733601","null","../img/tt/1158tt.jpg","",""
"1090","<p></p>","","recognized","html-keyboard-response","556","3164924","0.0-2.0-2.92","ck","1","pretest","true","6733601","78","../img/tt/1158tt.jpg","n",""
"null","../img/gs/1158gs.jpg","","solution","image-keyboard-response","557","3166928","0.0-2.0-3.92","ck","1","pretest","true","6733601","null","","",""
"null","../img/tt/1158tt.jpg","","mooney2","image-keyboard-response","558","3168931","0.0-2.0-4.92","ck","1","pretest","true","6733601","null","","",""
"268","<p>How strong was your <strong>aha-experience</strong>?</p>","","aha","html-keyboard-response","559","3169201","0.0-2.0-5.92","ck","1","pretest","true","6733601","51","../img/tt/1158tt.jpg","","3"
"null","<div style=""font-size:60px;""> </div>","","fixation","html-keyboard-response","560","3169402","0.0-2.0-0.93","ck","1","pretest","true","6733601","null","","",""
"null","../img/tt/1060tt.jpg","","mooney1","image-keyboard-response","561","3172406","0.0-2.0-1.93","ck","1","pretest","true","6733601","null","../img/tt/1060tt.jpg","",""
"1312","<p></p>","","recognized","html-keyboard-response","562","3173719","0.0-2.0-2.93","ck","1","pretest","true","6733601","78","../img/tt/1060tt.jpg","n",""
"null","../img/gs/1060gs.jpg","","solution","image-keyboard-response","563","3175723","0.0-2.0-3.93","ck","1","pretest","true","6733601","null","","",""
"null","../img/tt/1060tt.jpg","","mooney2","image-keyboard-response","564","3177725","0.0-2.0-4.93","ck","1","pretest","true","6733601","null","","",""
"952","<p>How strong was your <strong>aha-experience</strong>?</p>","","aha","html-keyboard-response","565","3178678","0.0-2.0-5.93","ck","1","pretest","true","6733601","51","../img/tt/1060tt.jpg","","3"
"null","<div style=""font-size:60px;""> </div>","","fixation","html-keyboard-response","566","3178880","0.0-2.0-0.94","ck","1","pretest","true","6733601","null","","",""
