"rt","stimulus","button_pressed","test_part","trial_type","trial_index","time_elapsed","internal_node_id","subject","session","experiment_name","complete","totalTime","key_press","currentStim","recognized","aha"
"1848","<div style='word-wrap: break-word; width: 900px'><h3>Please consider this information carefully before deciding whether to participate in this research</h3><ul style='text-align: left; font-size: .8em;'><li><b>Purpose of the research</b>: To examine how people process images.</li><li><b>What you will do in this research</b>:  Stimuli (images) will be presented on the computer and you will be asked different questions about them.</li><li><b>Time required</b>: Participation will take max 60 minutes to complete.</li><li><b>Risks</b>:  There are no anticipated risks associated with participating in this study. The effects of participating should be comparable to those you would experience from viewing a computer monitor for 60 minutes and using a mouse or keyboard.</li><li><b>Benefits</b>:  This study provides no benefits to you individually. The study provides important information about the nature of perception and learning.</li><li><b>Confidentiality</b>:  Your participation in this study will remain confidential. No personally identifiable information will be associated with your data. Your de-identified data may be shared with other researchers and used in future projects.</li><li><b>Participation and withdrawal</b>:  Your participation in this study is completely voluntary and you may refuse to participate or you may choose to withdraw at any time without penalty.</li><li><b>How to contact the researchers</b>: If you have questions or concerns about your participation or payment, or want to request a summary of research findings, please contact Sander Van de Cruys (KU Leuven), at sander.vandecruys@kuleuven.be.</li></ul><p>The nature and purpose of this research have been sufficiently explained and I agree to participate in this study.  I understand that I am free to withdraw at any time without incurring any penalty.</p><p>Please consent by clicking the button below to continue. Otherwise, please exit the study at this time.</p></div>","0","instructions","html-button-response","0","1849","0.0-0.0","ck","2","pretest","true","4009713","","","",""
"1732","<div style='word-wrap: break-word; width: 900px'><h3>Instructions</h3><p>In this experiment you will see a series of distorted images like the one below on the left. As you can see in the righthand image, the distorted images are derived from actual photographs.In what follows, you will <strong>briefly</strong> be presented with <strong>only</strong> the distorted image.</p> <div style='float: left; margin-right: 20px;'><img src='../img/018tt.jpg' height='250' width='250'></img></div><div style='float: right; margin-left: 20px;'><img src='../img/018gs.jpg' height='250' width='250'></img></div><p>To be useful for future research, we need to select those images that people can generally not solve on their own. Therefore we'll show you the distorted image and ask you to indicate (yes or no) whether you already recognized what was in the image. This is not a competition, so please respond truthfully. We don't ask or check your answer, we just want to know whether you think you recognized it. All images depict objects from one of these broad level categories: animals, inanimate objects, plants, sports, vehicles, and food. Recognizing means knowing more than these broad labels for a given image. It means knowing at least the basic level category of the main object in the image, for example when you see a parrot in the image, 'parrot' will obviously be a correct answer but also correct is 'bird', but not 'animal' (the broad level category). For the example above, 'rose' would be correct or 'flower', but not 'plant'. When soccer players are depicted, you don't recognize the image when you just see 'humans', 'outdoors', or 'sports'. Note that complete certainty about your answer is not necessary, it's enough to have a good, definite guess on the object, to say 'yes, I recognized it'.</p><p>One additional question will be asked after we've revealed the solution: You'll be asked to indicate how strong your <strong>aha-experience</strong> was. This describes the positive 'click' you sometimes experience, when the pieces of the 'puzzle' fall together and you suddenly have 'insight' in the image. It describes how good you felt the 'fit' was between the distorted image and the solution.</p><p>Press any key to start.</p></div>","","instructions","html-keyboard-response","1","3582","0.0-1.0","ck","2","pretest","true","4009713","32","","",""
"null","<div style=""font-size:60px;""> </div>","","fixation","html-keyboard-response","2","3784","0.0-2.0-0.0","ck","2","pretest","true","4009713","null","","",""
"null","../img/tt/327tt.jpg","","mooney1","image-keyboard-response","3","6787","0.0-2.0-1.0","ck","2","pretest","true","4009713","null","../img/tt/327tt.jpg","",""
"1372","<p></p>","","recognized","html-keyboard-response","4","8161","0.0-2.0-2.0","ck","2","pretest","true","4009713","78","../img/tt/327tt.jpg","n",""
"null","../img/gs/327gs.jpg","","solution","image-keyboard-response","5","10165","0.0-2.0-3.0","ck","2","pretest","true","4009713","null","","",""
"null","../img/tt/327tt.jpg","","mooney2","image-keyboard-response","6","12168","0.0-2.0-4.0","ck","2","pretest","true","4009713","null","","",""
"504","<p>How strong was your <strong>aha-experience</strong>?</p>","","aha","html-keyboard-response","7","12674","0.0-2.0-5.0","ck","2","pretest","true","4009713","52","../img/tt/327tt.jpg","","4"
"null","<div style=""font-size:60px;""> </div>","","fixation","html-keyboard-response","8","12876","0.0-2.0-0.1","ck","2","pretest","true","4009713","null","","",""
"null","../img/tt/1312tt.jpg","","mooney1","image-keyboard-response","9","15879","0.0-2.0-1.1","ck","2","pretest","true","4009713","null","../img/tt/1312tt.jpg","",""
"451","<p></p>","","recognized","html-keyboard-response","10","16331","0.0-2.0-2.1","ck","2","pretest","true","4009713","89","../img/tt/1312tt.jpg","y",""
"null","../img/gs/1312gs.jpg","","solution","image-keyboard-response","11","18335","0.0-2.0-3.1","ck","2","pretest","true","4009713","null","","",""
"null","../img/tt/1312tt.jpg","","mooney2","image-keyboard-response","12","20338","0.0-2.0-4.1","ck","2","pretest","true","4009713","null","","",""
"1362","<p>How strong was your <strong>aha-experience</strong>?</p>","","aha","html-keyboard-response","13","21702","0.0-2.0-5.1","ck","2","pretest","true","4009713","49","../img/tt/1312tt.jpg","","1"
"null","<div style=""font-size:60px;""> </div>","","fixation","html-keyboard-response","14","21904","0.0-2.0-0.2","ck","2","pretest","true","4009713","null","","",""
"null","../img/tt/175tt.jpg","","mooney1","image-keyboard-response","15","24907","0.0-2.0-1.2","ck","2","pretest","true","4009713","null","../img/tt/175tt.jpg","",""
"1166","<p></p>","","recognized","html-keyboard-response","16","26075","0.0-2.0-2.2","ck","2","pretest","true","4009713","78","../img/tt/175tt.jpg","n",""
"null","../img/gs/175gs.jpg","","solution","image-keyboard-response","17","28079","0.0-2.0-3.2","ck","2","pretest","true","4009713","null","","",""
"null","../img/tt/175tt.jpg","","mooney2","image-keyboard-response","18","30082","0.0-2.0-4.2","ck","2","pretest","true","4009713","null","","",""
"405","<p>How strong was your <strong>aha-experience</strong>?</p>","","aha","html-keyboard-response","19","30488","0.0-2.0-5.2","ck","2","pretest","true","4009713","49","../img/tt/175tt.jpg","","1"
"null","<div style=""font-size:60px;""> </div>","","fixation","html-keyboard-response","20","30690","0.0-2.0-0.3","ck","2","pretest","true","4009713","null","","",""
"null","../img/tt/544tt.jpg","","mooney1","image-keyboard-response","21","33694","0.0-2.0-1.3","ck","2","pretest","true","4009713","null","../img/tt/544tt.jpg","",""
"663","<p></p>","","recognized","html-keyboard-response","22","34358","0.0-2.0-2.3","ck","2","pretest","true","4009713","78","../img/tt/544tt.jpg","n",""
"null","../img/gs/544gs.jpg","","solution","image-keyboard-response","23","36361","0.0-2.0-3.3","ck","2","pretest","true","4009713","null","","",""
"null","../img/tt/544tt.jpg","","mooney2","image-keyboard-response","24","38364","0.0-2.0-4.3","ck","2","pretest","true","4009713","null","","",""
"1934","<p>How strong was your <strong>aha-experience</strong>?</p>","","aha","html-keyboard-response","25","40300","0.0-2.0-5.3","ck","2","pretest","true","4009713","51","../img/tt/544tt.jpg","","3"
"null","<div style=""font-size:60px;""> </div>","","fixation","html-keyboard-response","26","40502","0.0-2.0-0.4","ck","2","pretest","true","4009713","null","","",""
"null","../img/tt/173tt.jpg","","mooney1","image-keyboard-response","27","43506","0.0-2.0-1.4","ck","2","pretest","true","4009713","null","../img/tt/173tt.jpg","",""
"407","<p></p>","","recognized","html-keyboard-response","28","43914","0.0-2.0-2.4","ck","2","pretest","true","4009713","78","../img/tt/173tt.jpg","n",""
"null","../img/gs/173gs.jpg","","solution","image-keyboard-response","29","45917","0.0-2.0-3.4","ck","2","pretest","true","4009713","null","","",""
"null","../img/tt/173tt.jpg","","mooney2","image-keyboard-response","30","47919","0.0-2.0-4.4","ck","2","pretest","true","4009713","null","","",""
"426","<p>How strong was your <strong>aha-experience</strong>?</p>","","aha","html-keyboard-response","31","48346","0.0-2.0-5.4","ck","2","pretest","true","4009713","50","../img/tt/173tt.jpg","","2"
"null","<div style=""font-size:60px;""> </div>","","fixation","html-keyboard-response","32","48548","0.0-2.0-0.5","ck","2","pretest","true","4009713","null","","",""
"null","../img/tt/300tt.jpg","","mooney1","image-keyboard-response","33","51552","0.0-2.0-1.5","ck","2","pretest","true","4009713","null","../img/tt/300tt.jpg","",""
"429","<p></p>","","recognized","html-keyboard-response","34","51982","0.0-2.0-2.5","ck","2","pretest","true","4009713","89","../img/tt/300tt.jpg","y",""
"null","../img/gs/300gs.jpg","","solution","image-keyboard-response","35","53986","0.0-2.0-3.5","ck","2","pretest","true","4009713","null","","",""
"null","../img/tt/300tt.jpg","","mooney2","image-keyboard-response","36","55987","0.0-2.0-4.5","ck","2","pretest","true","4009713","null","","",""
"2119","<p>How strong was your <strong>aha-experience</strong>?</p>","","aha","html-keyboard-response","37","58108","0.0-2.0-5.5","ck","2","pretest","true","4009713","52","../img/tt/300tt.jpg","","4"
"null","<div style=""font-size:60px;""> </div>","","fixation","html-keyboard-response","38","58310","0.0-2.0-0.6","ck","2","pretest","true","4009713","null","","",""
"null","../img/tt/492tt.jpg","","mooney1","image-keyboard-response","39","61313","0.0-2.0-1.6","ck","2","pretest","true","4009713","null","../img/tt/492tt.jpg","",""
"849","<p></p>","","recognized","html-keyboard-response","40","62163","0.0-2.0-2.6","ck","2","pretest","true","4009713","78","../img/tt/492tt.jpg","n",""
"null","../img/gs/492gs.jpg","","solution","image-keyboard-response","41","64166","0.0-2.0-3.6","ck","2","pretest","true","4009713","null","","",""
"null","../img/tt/492tt.jpg","","mooney2","image-keyboard-response","42","66169","0.0-2.0-4.6","ck","2","pretest","true","4009713","null","","",""
"7743","<p>How strong was your <strong>aha-experience</strong>?</p>","","aha","html-keyboard-response","43","73914","0.0-2.0-5.6","ck","2","pretest","true","4009713","51","../img/tt/492tt.jpg","","3"
"null","<div style=""font-size:60px;""> </div>","","fixation","html-keyboard-response","44","74116","0.0-2.0-0.7","ck","2","pretest","true","4009713","null","","",""
"null","../img/tt/603tt.jpg","","mooney1","image-keyboard-response","45","77120","0.0-2.0-1.7","ck","2","pretest","true","4009713","null","../img/tt/603tt.jpg","",""
"600","<p></p>","","recognized","html-keyboard-response","46","77721","0.0-2.0-2.7","ck","2","pretest","true","4009713","78","../img/tt/603tt.jpg","n",""
"null","../img/gs/603gs.jpg","","solution","image-keyboard-response","47","79725","0.0-2.0-3.7","ck","2","pretest","true","4009713","null","","",""
"null","../img/tt/603tt.jpg","","mooney2","image-keyboard-response","48","81728","0.0-2.0-4.7","ck","2","pretest","true","4009713","null","","",""
"1162","<p>How strong was your <strong>aha-experience</strong>?</p>","","aha","html-keyboard-response","49","82891","0.0-2.0-5.7","ck","2","pretest","true","4009713","52","../img/tt/603tt.jpg","","4"
"null","<div style=""font-size:60px;""> </div>","","fixation","html-keyboard-response","50","83092","0.0-2.0-0.8","ck","2","pretest","true","4009713","null","","",""
"null","../img/tt/546tt.jpg","","mooney1","image-keyboard-response","51","86096","0.0-2.0-1.8","ck","2","pretest","true","4009713","null","../img/tt/546tt.jpg","",""
"725","<p></p>","","recognized","html-keyboard-response","52","86822","0.0-2.0-2.8","ck","2","pretest","true","4009713","89","../img/tt/546tt.jpg","y",""
"null","../img/gs/546gs.jpg","","solution","image-keyboard-response","53","88826","0.0-2.0-3.8","ck","2","pretest","true","4009713","null","","",""
"null","../img/tt/546tt.jpg","","mooney2","image-keyboard-response","54","90829","0.0-2.0-4.8","ck","2","pretest","true","4009713","null","","",""
"1239","<p>How strong was your <strong>aha-experience</strong>?</p>","","aha","html-keyboard-response","55","92069","0.0-2.0-5.8","ck","2","pretest","true","4009713","49","../img/tt/546tt.jpg","","1"
"null","<div style=""font-size:60px;""> </div>","","fixation","html-keyboard-response","56","92271","0.0-2.0-0.9","ck","2","pretest","true","4009713","null","","",""
"null","../img/tt/1344tt.jpg","","mooney1","image-keyboard-response","57","95275","0.0-2.0-1.9","ck","2","pretest","true","4009713","null","../img/tt/1344tt.jpg","",""
"413","<p></p>","","recognized","html-keyboard-response","58","95689","0.0-2.0-2.9","ck","2","pretest","true","4009713","89","../img/tt/1344tt.jpg","y",""
"null","../img/gs/1344gs.jpg","","solution","image-keyboard-response","59","97692","0.0-2.0-3.9","ck","2","pretest","true","4009713","null","","",""
"null","../img/tt/1344tt.jpg","","mooney2","image-keyboard-response","60","99696","0.0-2.0-4.9","ck","2","pretest","true","4009713","null","","",""
"378","<p>How strong was your <strong>aha-experience</strong>?</p>","","aha","html-keyboard-response","61","100075","0.0-2.0-5.9","ck","2","pretest","true","4009713","49","../img/tt/1344tt.jpg","","1"
"null","<div style=""font-size:60px;""> </div>","","fixation","html-keyboard-response","62","100276","0.0-2.0-0.10","ck","2","pretest","true","4009713","null","","",""
"null","../img/tt/369tt.jpg","","mooney1","image-keyboard-response","63","103279","0.0-2.0-1.10","ck","2","pretest","true","4009713","null","../img/tt/369tt.jpg","",""
"758","<p></p>","","recognized","html-keyboard-response","64","104038","0.0-2.0-2.10","ck","2","pretest","true","4009713","78","../img/tt/369tt.jpg","n",""
"null","../img/gs/369gs.jpg","","solution","image-keyboard-response","65","106042","0.0-2.0-3.10","ck","2","pretest","true","4009713","null","","",""
"null","../img/tt/369tt.jpg","","mooney2","image-keyboard-response","66","108045","0.0-2.0-4.10","ck","2","pretest","true","4009713","null","","",""
"4214","<p>How strong was your <strong>aha-experience</strong>?</p>","","aha","html-keyboard-response","67","112266","0.0-2.0-5.10","ck","2","pretest","true","4009713","54","../img/tt/369tt.jpg","","6"
"null","<div style=""font-size:60px;""> </div>","","fixation","html-keyboard-response","68","112468","0.0-2.0-0.11","ck","2","pretest","true","4009713","null","","",""
"null","../img/tt/1346tt.jpg","","mooney1","image-keyboard-response","69","115472","0.0-2.0-1.11","ck","2","pretest","true","4009713","null","../img/tt/1346tt.jpg","",""
"3148","<p></p>","","recognized","html-keyboard-response","70","118621","0.0-2.0-2.11","ck","2","pretest","true","4009713","78","../img/tt/1346tt.jpg","n",""
"null","../img/gs/1346gs.jpg","","solution","image-keyboard-response","71","120625","0.0-2.0-3.11","ck","2","pretest","true","4009713","null","","",""
"null","../img/tt/1346tt.jpg","","mooney2","image-keyboard-response","72","122628","0.0-2.0-4.11","ck","2","pretest","true","4009713","null","","",""
"9461","<p>How strong was your <strong>aha-experience</strong>?</p>","","aha","html-keyboard-response","73","132091","0.0-2.0-5.11","ck","2","pretest","true","4009713","50","../img/tt/1346tt.jpg","","2"
"null","<div style=""font-size:60px;""> </div>","","fixation","html-keyboard-response","74","132293","0.0-2.0-0.12","ck","2","pretest","true","4009713","null","","",""
"null","../img/tt/565tt.jpg","","mooney1","image-keyboard-response","75","135296","0.0-2.0-1.12","ck","2","pretest","true","4009713","null","../img/tt/565tt.jpg","",""
"3650","<p></p>","","recognized","html-keyboard-response","76","138947","0.0-2.0-2.12","ck","2","pretest","true","4009713","89","../img/tt/565tt.jpg","y",""
"null","../img/gs/565gs.jpg","","solution","image-keyboard-response","77","140951","0.0-2.0-3.12","ck","2","pretest","true","4009713","null","","",""
"null","../img/tt/565tt.jpg","","mooney2","image-keyboard-response","78","142954","0.0-2.0-4.12","ck","2","pretest","true","4009713","null","","",""
"2551","<p>How strong was your <strong>aha-experience</strong>?</p>","","aha","html-keyboard-response","79","145506","0.0-2.0-5.12","ck","2","pretest","true","4009713","49","../img/tt/565tt.jpg","","1"
"null","<div style=""font-size:60px;""> </div>","","fixation","html-keyboard-response","80","145708","0.0-2.0-0.13","ck","2","pretest","true","4009713","null","","",""
"null","../img/tt/512tt.jpg","","mooney1","image-keyboard-response","81","148710","0.0-2.0-1.13","ck","2","pretest","true","4009713","null","../img/tt/512tt.jpg","",""
"1518","<p></p>","","recognized","html-keyboard-response","82","150229","0.0-2.0-2.13","ck","2","pretest","true","4009713","78","../img/tt/512tt.jpg","n",""
"null","../img/gs/512gs.jpg","","solution","image-keyboard-response","83","152233","0.0-2.0-3.13","ck","2","pretest","true","4009713","null","","",""
"null","../img/tt/512tt.jpg","","mooney2","image-keyboard-response","84","154235","0.0-2.0-4.13","ck","2","pretest","true","4009713","null","","",""
"1571","<p>How strong was your <strong>aha-experience</strong>?</p>","","aha","html-keyboard-response","85","155808","0.0-2.0-5.13","ck","2","pretest","true","4009713","50","../img/tt/512tt.jpg","","2"
"null","<div style=""font-size:60px;""> </div>","","fixation","html-keyboard-response","86","156010","0.0-2.0-0.14","ck","2","pretest","true","4009713","null","","",""
"null","../img/tt/189tt.jpg","","mooney1","image-keyboard-response","87","159013","0.0-2.0-1.14","ck","2","pretest","true","4009713","null","../img/tt/189tt.jpg","",""
"465","<p></p>","","recognized","html-keyboard-response","88","159479","0.0-2.0-2.14","ck","2","pretest","true","4009713","89","../img/tt/189tt.jpg","y",""
"null","../img/gs/189gs.jpg","","solution","image-keyboard-response","89","161483","0.0-2.0-3.14","ck","2","pretest","true","4009713","null","","",""
"null","../img/tt/189tt.jpg","","mooney2","image-keyboard-response","90","163486","0.0-2.0-4.14","ck","2","pretest","true","4009713","null","","",""
"1645","<p>How strong was your <strong>aha-experience</strong>?</p>","","aha","html-keyboard-response","91","165131","0.0-2.0-5.14","ck","2","pretest","true","4009713","49","../img/tt/189tt.jpg","","1"
"null","<div style=""font-size:60px;""> </div>","","fixation","html-keyboard-response","92","165334","0.0-2.0-0.15","ck","2","pretest","true","4009713","null","","",""
"null","../img/tt/351tt.jpg","","mooney1","image-keyboard-response","93","168337","0.0-2.0-1.15","ck","2","pretest","true","4009713","null","../img/tt/351tt.jpg","",""
"1586","<p></p>","","recognized","html-keyboard-response","94","169924","0.0-2.0-2.15","ck","2","pretest","true","4009713","89","../img/tt/351tt.jpg","y",""
"null","../img/gs/351gs.jpg","","solution","image-keyboard-response","95","171927","0.0-2.0-3.15","ck","2","pretest","true","4009713","null","","",""
"null","../img/tt/351tt.jpg","","mooney2","image-keyboard-response","96","173931","0.0-2.0-4.15","ck","2","pretest","true","4009713","null","","",""
"483","<p>How strong was your <strong>aha-experience</strong>?</p>","","aha","html-keyboard-response","97","174414","0.0-2.0-5.15","ck","2","pretest","true","4009713","49","../img/tt/351tt.jpg","","1"
"null","<div style=""font-size:60px;""> </div>","","fixation","html-keyboard-response","98","174616","0.0-2.0-0.16","ck","2","pretest","true","4009713","null","","",""
"null","../img/tt/1319tt.jpg","","mooney1","image-keyboard-response","99","177620","0.0-2.0-1.16","ck","2","pretest","true","4009713","null","../img/tt/1319tt.jpg","",""
"1219","<p></p>","","recognized","html-keyboard-response","100","178840","0.0-2.0-2.16","ck","2","pretest","true","4009713","89","../img/tt/1319tt.jpg","y",""
"null","../img/gs/1319gs.jpg","","solution","image-keyboard-response","101","180844","0.0-2.0-3.16","ck","2","pretest","true","4009713","null","","",""
"null","../img/tt/1319tt.jpg","","mooney2","image-keyboard-response","102","182848","0.0-2.0-4.16","ck","2","pretest","true","4009713","null","","",""
"2091","<p>How strong was your <strong>aha-experience</strong>?</p>","","aha","html-keyboard-response","103","184940","0.0-2.0-5.16","ck","2","pretest","true","4009713","49","../img/tt/1319tt.jpg","","1"
"null","<div style=""font-size:60px;""> </div>","","fixation","html-keyboard-response","104","185142","0.0-2.0-0.17","ck","2","pretest","true","4009713","null","","",""
"null","../img/tt/1355tt.jpg","","mooney1","image-keyboard-response","105","188145","0.0-2.0-1.17","ck","2","pretest","true","4009713","null","../img/tt/1355tt.jpg","",""
"382","<p></p>","","recognized","html-keyboard-response","106","188528","0.0-2.0-2.17","ck","2","pretest","true","4009713","89","../img/tt/1355tt.jpg","y",""
"null","../img/gs/1355gs.jpg","","solution","image-keyboard-response","107","190532","0.0-2.0-3.17","ck","2","pretest","true","4009713","null","","",""
"null","../img/tt/1355tt.jpg","","mooney2","image-keyboard-response","108","192535","0.0-2.0-4.17","ck","2","pretest","true","4009713","null","","",""
"1403","<p>How strong was your <strong>aha-experience</strong>?</p>","","aha","html-keyboard-response","109","193939","0.0-2.0-5.17","ck","2","pretest","true","4009713","49","../img/tt/1355tt.jpg","","1"
"null","<div style=""font-size:60px;""> </div>","","fixation","html-keyboard-response","110","194141","0.0-2.0-0.18","ck","2","pretest","true","4009713","null","","",""
"null","../img/tt/245tt.jpg","","mooney1","image-keyboard-response","111","197144","0.0-2.0-1.18","ck","2","pretest","true","4009713","null","../img/tt/245tt.jpg","",""
"1083","<p></p>","","recognized","html-keyboard-response","112","198228","0.0-2.0-2.18","ck","2","pretest","true","4009713","78","../img/tt/245tt.jpg","n",""
"null","../img/gs/245gs.jpg","","solution","image-keyboard-response","113","200232","0.0-2.0-3.18","ck","2","pretest","true","4009713","null","","",""
"null","../img/tt/245tt.jpg","","mooney2","image-keyboard-response","114","202234","0.0-2.0-4.18","ck","2","pretest","true","4009713","null","","",""
"1421","<p>How strong was your <strong>aha-experience</strong>?</p>","","aha","html-keyboard-response","115","203656","0.0-2.0-5.18","ck","2","pretest","true","4009713","49","../img/tt/245tt.jpg","","1"
"null","<div style=""font-size:60px;""> </div>","","fixation","html-keyboard-response","116","203858","0.0-2.0-0.19","ck","2","pretest","true","4009713","null","","",""
"null","../img/tt/1345tt.jpg","","mooney1","image-keyboard-response","117","206862","0.0-2.0-1.19","ck","2","pretest","true","4009713","null","../img/tt/1345tt.jpg","",""
"43513","<p></p>","","recognized","html-keyboard-response","118","250376","0.0-2.0-2.19","ck","2","pretest","true","4009713","78","../img/tt/1345tt.jpg","n",""
"null","../img/gs/1345gs.jpg","","solution","image-keyboard-response","119","252380","0.0-2.0-3.19","ck","2","pretest","true","4009713","null","","",""
"null","../img/tt/1345tt.jpg","","mooney2","image-keyboard-response","120","254384","0.0-2.0-4.19","ck","2","pretest","true","4009713","null","","",""
"2417","<p>How strong was your <strong>aha-experience</strong>?</p>","","aha","html-keyboard-response","121","256802","0.0-2.0-5.19","ck","2","pretest","true","4009713","49","../img/tt/1345tt.jpg","","1"
"null","<div style=""font-size:60px;""> </div>","","fixation","html-keyboard-response","122","257003","0.0-2.0-0.20","ck","2","pretest","true","4009713","null","","",""
"null","../img/tt/307tt.jpg","","mooney1","image-keyboard-response","123","260006","0.0-2.0-1.20","ck","2","pretest","true","4009713","null","../img/tt/307tt.jpg","",""
"51123","<p></p>","","recognized","html-keyboard-response","124","311129","0.0-2.0-2.20","ck","2","pretest","true","4009713","78","../img/tt/307tt.jpg","n",""
"null","../img/gs/307gs.jpg","","solution","image-keyboard-response","125","313133","0.0-2.0-3.20","ck","2","pretest","true","4009713","null","","",""
"null","../img/tt/307tt.jpg","","mooney2","image-keyboard-response","126","315135","0.0-2.0-4.20","ck","2","pretest","true","4009713","null","","",""
"485","<p>How strong was your <strong>aha-experience</strong>?</p>","","aha","html-keyboard-response","127","315620","0.0-2.0-5.20","ck","2","pretest","true","4009713","49","../img/tt/307tt.jpg","","1"
"null","<div style=""font-size:60px;""> </div>","","fixation","html-keyboard-response","128","315822","0.0-2.0-0.21","ck","2","pretest","true","4009713","null","","",""
"null","../img/tt/601tt.jpg","","mooney1","image-keyboard-response","129","318825","0.0-2.0-1.21","ck","2","pretest","true","4009713","null","../img/tt/601tt.jpg","",""
"1013","<p></p>","","recognized","html-keyboard-response","130","319840","0.0-2.0-2.21","ck","2","pretest","true","4009713","78","../img/tt/601tt.jpg","n",""
"null","../img/gs/601gs.jpg","","solution","image-keyboard-response","131","321842","0.0-2.0-3.21","ck","2","pretest","true","4009713","null","","",""
"null","../img/tt/601tt.jpg","","mooney2","image-keyboard-response","132","323845","0.0-2.0-4.21","ck","2","pretest","true","4009713","null","","",""
"1209","<p>How strong was your <strong>aha-experience</strong>?</p>","","aha","html-keyboard-response","133","325054","0.0-2.0-5.21","ck","2","pretest","true","4009713","52","../img/tt/601tt.jpg","","4"
"null","<div style=""font-size:60px;""> </div>","","fixation","html-keyboard-response","134","325255","0.0-2.0-0.22","ck","2","pretest","true","4009713","null","","",""
"null","../img/tt/187tt.jpg","","mooney1","image-keyboard-response","135","328259","0.0-2.0-1.22","ck","2","pretest","true","4009713","null","../img/tt/187tt.jpg","",""
"406","<p></p>","","recognized","html-keyboard-response","136","328666","0.0-2.0-2.22","ck","2","pretest","true","4009713","89","../img/tt/187tt.jpg","y",""
"null","../img/gs/187gs.jpg","","solution","image-keyboard-response","137","330670","0.0-2.0-3.22","ck","2","pretest","true","4009713","null","","",""
"null","../img/tt/187tt.jpg","","mooney2","image-keyboard-response","138","332672","0.0-2.0-4.22","ck","2","pretest","true","4009713","null","","",""
"374","<p>How strong was your <strong>aha-experience</strong>?</p>","","aha","html-keyboard-response","139","333047","0.0-2.0-5.22","ck","2","pretest","true","4009713","50","../img/tt/187tt.jpg","","2"
"null","<div style=""font-size:60px;""> </div>","","fixation","html-keyboard-response","140","333249","0.0-2.0-0.23","ck","2","pretest","true","4009713","null","","",""
"null","../img/tt/540tt.jpg","","mooney1","image-keyboard-response","141","336252","0.0-2.0-1.23","ck","2","pretest","true","4009713","null","../img/tt/540tt.jpg","",""
"597","<p></p>","","recognized","html-keyboard-response","142","336850","0.0-2.0-2.23","ck","2","pretest","true","4009713","78","../img/tt/540tt.jpg","n",""
"null","../img/gs/540gs.jpg","","solution","image-keyboard-response","143","338853","0.0-2.0-3.23","ck","2","pretest","true","4009713","null","","",""
"null","../img/tt/540tt.jpg","","mooney2","image-keyboard-response","144","340856","0.0-2.0-4.23","ck","2","pretest","true","4009713","null","","",""
"365","<p>How strong was your <strong>aha-experience</strong>?</p>","","aha","html-keyboard-response","145","341223","0.0-2.0-5.23","ck","2","pretest","true","4009713","50","../img/tt/540tt.jpg","","2"
"null","<div style=""font-size:60px;""> </div>","","fixation","html-keyboard-response","146","341425","0.0-2.0-0.24","ck","2","pretest","true","4009713","null","","",""
"null","../img/tt/1313tt.jpg","","mooney1","image-keyboard-response","147","344428","0.0-2.0-1.24","ck","2","pretest","true","4009713","null","../img/tt/1313tt.jpg","",""
"963","<p></p>","","recognized","html-keyboard-response","148","345391","0.0-2.0-2.24","ck","2","pretest","true","4009713","89","../img/tt/1313tt.jpg","y",""
"null","../img/gs/1313gs.jpg","","solution","image-keyboard-response","149","347394","0.0-2.0-3.24","ck","2","pretest","true","4009713","null","","",""
"null","../img/tt/1313tt.jpg","","mooney2","image-keyboard-response","150","349397","0.0-2.0-4.24","ck","2","pretest","true","4009713","null","","",""
"313","<p>How strong was your <strong>aha-experience</strong>?</p>","","aha","html-keyboard-response","151","349710","0.0-2.0-5.24","ck","2","pretest","true","4009713","49","../img/tt/1313tt.jpg","","1"
"null","<div style=""font-size:60px;""> </div>","","fixation","html-keyboard-response","152","349912","0.0-2.0-0.25","ck","2","pretest","true","4009713","null","","",""
"null","../img/tt/588tt.jpg","","mooney1","image-keyboard-response","153","352915","0.0-2.0-1.25","ck","2","pretest","true","4009713","null","../img/tt/588tt.jpg","",""
"2160","<p></p>","","recognized","html-keyboard-response","154","355076","0.0-2.0-2.25","ck","2","pretest","true","4009713","78","../img/tt/588tt.jpg","n",""
"null","../img/gs/588gs.jpg","","solution","image-keyboard-response","155","357079","0.0-2.0-3.25","ck","2","pretest","true","4009713","null","","",""
"null","../img/tt/588tt.jpg","","mooney2","image-keyboard-response","156","359082","0.0-2.0-4.25","ck","2","pretest","true","4009713","null","","",""
"2463","<p>How strong was your <strong>aha-experience</strong>?</p>","","aha","html-keyboard-response","157","361547","0.0-2.0-5.25","ck","2","pretest","true","4009713","51","../img/tt/588tt.jpg","","3"
"null","<div style=""font-size:60px;""> </div>","","fixation","html-keyboard-response","158","361749","0.0-2.0-0.26","ck","2","pretest","true","4009713","null","","",""
"null","../img/tt/382tt.jpg","","mooney1","image-keyboard-response","159","364753","0.0-2.0-1.26","ck","2","pretest","true","4009713","null","../img/tt/382tt.jpg","",""
"299","<p></p>","","recognized","html-keyboard-response","160","365052","0.0-2.0-2.26","ck","2","pretest","true","4009713","89","../img/tt/382tt.jpg","y",""
"null","../img/gs/382gs.jpg","","solution","image-keyboard-response","161","367056","0.0-2.0-3.26","ck","2","pretest","true","4009713","null","","",""
"null","../img/tt/382tt.jpg","","mooney2","image-keyboard-response","162","369059","0.0-2.0-4.26","ck","2","pretest","true","4009713","null","","",""
"1167","<p>How strong was your <strong>aha-experience</strong>?</p>","","aha","html-keyboard-response","163","370228","0.0-2.0-5.26","ck","2","pretest","true","4009713","49","../img/tt/382tt.jpg","","1"
"null","<div style=""font-size:60px;""> </div>","","fixation","html-keyboard-response","164","370430","0.0-2.0-0.27","ck","2","pretest","true","4009713","null","","",""
"null","../img/tt/567tt.jpg","","mooney1","image-keyboard-response","165","373434","0.0-2.0-1.27","ck","2","pretest","true","4009713","null","../img/tt/567tt.jpg","",""
"379","<p></p>","","recognized","html-keyboard-response","166","373814","0.0-2.0-2.27","ck","2","pretest","true","4009713","89","../img/tt/567tt.jpg","y",""
"null","../img/gs/567gs.jpg","","solution","image-keyboard-response","167","375818","0.0-2.0-3.27","ck","2","pretest","true","4009713","null","","",""
"null","../img/tt/567tt.jpg","","mooney2","image-keyboard-response","168","377821","0.0-2.0-4.27","ck","2","pretest","true","4009713","null","","",""
"556","<p>How strong was your <strong>aha-experience</strong>?</p>","","aha","html-keyboard-response","169","378379","0.0-2.0-5.27","ck","2","pretest","true","4009713","49","../img/tt/567tt.jpg","","1"
"null","<div style=""font-size:60px;""> </div>","","fixation","html-keyboard-response","170","378581","0.0-2.0-0.28","ck","2","pretest","true","4009713","null","","",""
"null","../img/tt/434tt.jpg","","mooney1","image-keyboard-response","171","381584","0.0-2.0-1.28","ck","2","pretest","true","4009713","null","../img/tt/434tt.jpg","",""
"1140","<p></p>","","recognized","html-keyboard-response","172","382724","0.0-2.0-2.28","ck","2","pretest","true","4009713","78","../img/tt/434tt.jpg","n",""
"null","../img/gs/434gs.jpg","","solution","image-keyboard-response","173","384728","0.0-2.0-3.28","ck","2","pretest","true","4009713","null","","",""
"null","../img/tt/434tt.jpg","","mooney2","image-keyboard-response","174","386731","0.0-2.0-4.28","ck","2","pretest","true","4009713","null","","",""
"155","<p>How strong was your <strong>aha-experience</strong>?</p>","","aha","html-keyboard-response","175","386888","0.0-2.0-5.28","ck","2","pretest","true","4009713","52","../img/tt/434tt.jpg","","4"
"null","<div style=""font-size:60px;""> </div>","","fixation","html-keyboard-response","176","387090","0.0-2.0-0.29","ck","2","pretest","true","4009713","null","","",""
"null","../img/tt/569tt.jpg","","mooney1","image-keyboard-response","177","390093","0.0-2.0-1.29","ck","2","pretest","true","4009713","null","../img/tt/569tt.jpg","",""
"307","<p></p>","","recognized","html-keyboard-response","178","390400","0.0-2.0-2.29","ck","2","pretest","true","4009713","89","../img/tt/569tt.jpg","y",""
"null","../img/gs/569gs.jpg","","solution","image-keyboard-response","179","392403","0.0-2.0-3.29","ck","2","pretest","true","4009713","null","","",""
"null","../img/tt/569tt.jpg","","mooney2","image-keyboard-response","180","394406","0.0-2.0-4.29","ck","2","pretest","true","4009713","null","","",""
"336","<p>How strong was your <strong>aha-experience</strong>?</p>","","aha","html-keyboard-response","181","394743","0.0-2.0-5.29","ck","2","pretest","true","4009713","49","../img/tt/569tt.jpg","","1"
"null","<div style=""font-size:60px;""> </div>","","fixation","html-keyboard-response","182","394945","0.0-2.0-0.30","ck","2","pretest","true","4009713","null","","",""
"null","../img/tt/511tt.jpg","","mooney1","image-keyboard-response","183","397947","0.0-2.0-1.30","ck","2","pretest","true","4009713","null","../img/tt/511tt.jpg","",""
"326","<p></p>","","recognized","html-keyboard-response","184","398275","0.0-2.0-2.30","ck","2","pretest","true","4009713","89","../img/tt/511tt.jpg","y",""
"null","../img/gs/511gs.jpg","","solution","image-keyboard-response","185","400278","0.0-2.0-3.30","ck","2","pretest","true","4009713","null","","",""
"null","../img/tt/511tt.jpg","","mooney2","image-keyboard-response","186","402282","0.0-2.0-4.30","ck","2","pretest","true","4009713","null","","",""
"324","<p>How strong was your <strong>aha-experience</strong>?</p>","","aha","html-keyboard-response","187","402606","0.0-2.0-5.30","ck","2","pretest","true","4009713","49","../img/tt/511tt.jpg","","1"
"null","<div style=""font-size:60px;""> </div>","","fixation","html-keyboard-response","188","402808","0.0-2.0-0.31","ck","2","pretest","true","4009713","null","","",""
"null","../img/tt/1351tt.jpg","","mooney1","image-keyboard-response","189","405811","0.0-2.0-1.31","ck","2","pretest","true","4009713","null","../img/tt/1351tt.jpg","",""
"364","<p></p>","","recognized","html-keyboard-response","190","406177","0.0-2.0-2.31","ck","2","pretest","true","4009713","78","../img/tt/1351tt.jpg","n",""
"null","../img/gs/1351gs.jpg","","solution","image-keyboard-response","191","408180","0.0-2.0-3.31","ck","2","pretest","true","4009713","null","","",""
"null","../img/tt/1351tt.jpg","","mooney2","image-keyboard-response","192","410183","0.0-2.0-4.31","ck","2","pretest","true","4009713","null","","",""
"626","<p>How strong was your <strong>aha-experience</strong>?</p>","","aha","html-keyboard-response","193","410810","0.0-2.0-5.31","ck","2","pretest","true","4009713","52","../img/tt/1351tt.jpg","","4"
"null","<div style=""font-size:60px;""> </div>","","fixation","html-keyboard-response","194","411013","0.0-2.0-0.32","ck","2","pretest","true","4009713","null","","",""
"null","../img/tt/503tt.jpg","","mooney1","image-keyboard-response","195","414016","0.0-2.0-1.32","ck","2","pretest","true","4009713","null","../img/tt/503tt.jpg","",""
"710","<p></p>","","recognized","html-keyboard-response","196","414727","0.0-2.0-2.32","ck","2","pretest","true","4009713","89","../img/tt/503tt.jpg","y",""
"null","../img/gs/503gs.jpg","","solution","image-keyboard-response","197","416731","0.0-2.0-3.32","ck","2","pretest","true","4009713","null","","",""
"null","../img/tt/503tt.jpg","","mooney2","image-keyboard-response","198","418734","0.0-2.0-4.32","ck","2","pretest","true","4009713","null","","",""
"337","<p>How strong was your <strong>aha-experience</strong>?</p>","","aha","html-keyboard-response","199","419071","0.0-2.0-5.32","ck","2","pretest","true","4009713","50","../img/tt/503tt.jpg","","2"
"null","<div style=""font-size:60px;""> </div>","","fixation","html-keyboard-response","200","419274","0.0-2.0-0.33","ck","2","pretest","true","4009713","null","","",""
"null","../img/tt/477tt.jpg","","mooney1","image-keyboard-response","201","422277","0.0-2.0-1.33","ck","2","pretest","true","4009713","null","../img/tt/477tt.jpg","",""
"272","<p></p>","","recognized","html-keyboard-response","202","422549","0.0-2.0-2.33","ck","2","pretest","true","4009713","78","../img/tt/477tt.jpg","n",""
"null","../img/gs/477gs.jpg","","solution","image-keyboard-response","203","424553","0.0-2.0-3.33","ck","2","pretest","true","4009713","null","","",""
"null","../img/tt/477tt.jpg","","mooney2","image-keyboard-response","204","426555","0.0-2.0-4.33","ck","2","pretest","true","4009713","null","","",""
"1140","<p>How strong was your <strong>aha-experience</strong>?</p>","","aha","html-keyboard-response","205","427696","0.0-2.0-5.33","ck","2","pretest","true","4009713","52","../img/tt/477tt.jpg","","4"
"null","<div style=""font-size:60px;""> </div>","","fixation","html-keyboard-response","206","427898","0.0-2.0-0.34","ck","2","pretest","true","4009713","null","","",""
"null","../img/tt/250tt.jpg","","mooney1","image-keyboard-response","207","430901","0.0-2.0-1.34","ck","2","pretest","true","4009713","null","../img/tt/250tt.jpg","",""
"492","<p></p>","","recognized","html-keyboard-response","208","431393","0.0-2.0-2.34","ck","2","pretest","true","4009713","78","../img/tt/250tt.jpg","n",""
"null","../img/gs/250gs.jpg","","solution","image-keyboard-response","209","433397","0.0-2.0-3.34","ck","2","pretest","true","4009713","null","","",""
"null","../img/tt/250tt.jpg","","mooney2","image-keyboard-response","210","435400","0.0-2.0-4.34","ck","2","pretest","true","4009713","null","","",""
"287","<p>How strong was your <strong>aha-experience</strong>?</p>","","aha","html-keyboard-response","211","435687","0.0-2.0-5.34","ck","2","pretest","true","4009713","49","../img/tt/250tt.jpg","","1"
"null","<div style=""font-size:60px;""> </div>","","fixation","html-keyboard-response","212","435889","0.0-2.0-0.35","ck","2","pretest","true","4009713","null","","",""
"null","../img/tt/374tt.jpg","","mooney1","image-keyboard-response","213","438892","0.0-2.0-1.35","ck","2","pretest","true","4009713","null","../img/tt/374tt.jpg","",""
"380","<p></p>","","recognized","html-keyboard-response","214","439273","0.0-2.0-2.35","ck","2","pretest","true","4009713","78","../img/tt/374tt.jpg","n",""
"null","../img/gs/374gs.jpg","","solution","image-keyboard-response","215","441277","0.0-2.0-3.35","ck","2","pretest","true","4009713","null","","",""
"null","../img/tt/374tt.jpg","","mooney2","image-keyboard-response","216","443280","0.0-2.0-4.35","ck","2","pretest","true","4009713","null","","",""
"322","<p>How strong was your <strong>aha-experience</strong>?</p>","","aha","html-keyboard-response","217","443602","0.0-2.0-5.35","ck","2","pretest","true","4009713","50","../img/tt/374tt.jpg","","2"
"null","<div style=""font-size:60px;""> </div>","","fixation","html-keyboard-response","218","443804","0.0-2.0-0.36","ck","2","pretest","true","4009713","null","","",""
"null","../img/tt/599tt.jpg","","mooney1","image-keyboard-response","219","446808","0.0-2.0-1.36","ck","2","pretest","true","4009713","null","../img/tt/599tt.jpg","",""
"328","<p></p>","","recognized","html-keyboard-response","220","447136","0.0-2.0-2.36","ck","2","pretest","true","4009713","78","../img/tt/599tt.jpg","n",""
"null","../img/gs/599gs.jpg","","solution","image-keyboard-response","221","449139","0.0-2.0-3.36","ck","2","pretest","true","4009713","null","","",""
"null","../img/tt/599tt.jpg","","mooney2","image-keyboard-response","222","451142","0.0-2.0-4.36","ck","2","pretest","true","4009713","null","","",""
"284","<p>How strong was your <strong>aha-experience</strong>?</p>","","aha","html-keyboard-response","223","451427","0.0-2.0-5.36","ck","2","pretest","true","4009713","54","../img/tt/599tt.jpg","","6"
"null","<div style=""font-size:60px;""> </div>","","fixation","html-keyboard-response","224","451629","0.0-2.0-0.37","ck","2","pretest","true","4009713","null","","",""
"null","../img/tt/563tt.jpg","","mooney1","image-keyboard-response","225","454632","0.0-2.0-1.37","ck","2","pretest","true","4009713","null","../img/tt/563tt.jpg","",""
"466","<p></p>","","recognized","html-keyboard-response","226","455099","0.0-2.0-2.37","ck","2","pretest","true","4009713","78","../img/tt/563tt.jpg","n",""
"null","../img/gs/563gs.jpg","","solution","image-keyboard-response","227","457101","0.0-2.0-3.37","ck","2","pretest","true","4009713","null","","",""
"null","../img/tt/563tt.jpg","","mooney2","image-keyboard-response","228","459104","0.0-2.0-4.37","ck","2","pretest","true","4009713","null","","",""
"333","<p>How strong was your <strong>aha-experience</strong>?</p>","","aha","html-keyboard-response","229","459437","0.0-2.0-5.37","ck","2","pretest","true","4009713","49","../img/tt/563tt.jpg","","1"
"null","<div style=""font-size:60px;""> </div>","","fixation","html-keyboard-response","230","459638","0.0-2.0-0.38","ck","2","pretest","true","4009713","null","","",""
"null","../img/tt/510tt.jpg","","mooney1","image-keyboard-response","231","462642","0.0-2.0-1.38","ck","2","pretest","true","4009713","null","../img/tt/510tt.jpg","",""
"2923","<p></p>","","recognized","html-keyboard-response","232","465566","0.0-2.0-2.38","ck","2","pretest","true","4009713","78","../img/tt/510tt.jpg","n",""
"null","../img/gs/510gs.jpg","","solution","image-keyboard-response","233","467569","0.0-2.0-3.38","ck","2","pretest","true","4009713","null","","",""
"null","../img/tt/510tt.jpg","","mooney2","image-keyboard-response","234","469572","0.0-2.0-4.38","ck","2","pretest","true","4009713","null","","",""
"2758","<p>How strong was your <strong>aha-experience</strong>?</p>","","aha","html-keyboard-response","235","472332","0.0-2.0-5.38","ck","2","pretest","true","4009713","52","../img/tt/510tt.jpg","","4"
"null","<div style=""font-size:60px;""> </div>","","fixation","html-keyboard-response","236","472534","0.0-2.0-0.39","ck","2","pretest","true","4009713","null","","",""
"null","../img/tt/594tt.jpg","","mooney1","image-keyboard-response","237","475538","0.0-2.0-1.39","ck","2","pretest","true","4009713","null","../img/tt/594tt.jpg","",""
"304","<p></p>","","recognized","html-keyboard-response","238","475842","0.0-2.0-2.39","ck","2","pretest","true","4009713","78","../img/tt/594tt.jpg","n",""
"null","../img/gs/594gs.jpg","","solution","image-keyboard-response","239","477845","0.0-2.0-3.39","ck","2","pretest","true","4009713","null","","",""
"null","../img/tt/594tt.jpg","","mooney2","image-keyboard-response","240","479848","0.0-2.0-4.39","ck","2","pretest","true","4009713","null","","",""
"687","<p>How strong was your <strong>aha-experience</strong>?</p>","","aha","html-keyboard-response","241","480536","0.0-2.0-5.39","ck","2","pretest","true","4009713","51","../img/tt/594tt.jpg","","3"
"null","<div style=""font-size:60px;""> </div>","","fixation","html-keyboard-response","242","480739","0.0-2.0-0.40","ck","2","pretest","true","4009713","null","","",""
"null","../img/tt/1316tt.jpg","","mooney1","image-keyboard-response","243","483742","0.0-2.0-1.40","ck","2","pretest","true","4009713","null","../img/tt/1316tt.jpg","",""
"668","<p></p>","","recognized","html-keyboard-response","244","484411","0.0-2.0-2.40","ck","2","pretest","true","4009713","78","../img/tt/1316tt.jpg","n",""
"null","../img/gs/1316gs.jpg","","solution","image-keyboard-response","245","486415","0.0-2.0-3.40","ck","2","pretest","true","4009713","null","","",""
"null","../img/tt/1316tt.jpg","","mooney2","image-keyboard-response","246","488418","0.0-2.0-4.40","ck","2","pretest","true","4009713","null","","",""
"346","<p>How strong was your <strong>aha-experience</strong>?</p>","","aha","html-keyboard-response","247","488765","0.0-2.0-5.40","ck","2","pretest","true","4009713","52","../img/tt/1316tt.jpg","","4"
"null","<div style=""font-size:60px;""> </div>","","fixation","html-keyboard-response","248","488966","0.0-2.0-0.41","ck","2","pretest","true","4009713","null","","",""
"null","../img/tt/1306tt.jpg","","mooney1","image-keyboard-response","249","491970","0.0-2.0-1.41","ck","2","pretest","true","4009713","null","../img/tt/1306tt.jpg","",""
"414","<p></p>","","recognized","html-keyboard-response","250","492385","0.0-2.0-2.41","ck","2","pretest","true","4009713","78","../img/tt/1306tt.jpg","n",""
"null","../img/gs/1306gs.jpg","","solution","image-keyboard-response","251","494389","0.0-2.0-3.41","ck","2","pretest","true","4009713","null","","",""
"null","../img/tt/1306tt.jpg","","mooney2","image-keyboard-response","252","496392","0.0-2.0-4.41","ck","2","pretest","true","4009713","null","","",""
"664","<p>How strong was your <strong>aha-experience</strong>?</p>","","aha","html-keyboard-response","253","497057","0.0-2.0-5.41","ck","2","pretest","true","4009713","49","../img/tt/1306tt.jpg","","1"
"null","<div style=""font-size:60px;""> </div>","","fixation","html-keyboard-response","254","497258","0.0-2.0-0.42","ck","2","pretest","true","4009713","null","","",""
"null","../img/tt/572tt.jpg","","mooney1","image-keyboard-response","255","500262","0.0-2.0-1.42","ck","2","pretest","true","4009713","null","../img/tt/572tt.jpg","",""
"309","<p></p>","","recognized","html-keyboard-response","256","500571","0.0-2.0-2.42","ck","2","pretest","true","4009713","78","../img/tt/572tt.jpg","n",""
"null","../img/gs/572gs.jpg","","solution","image-keyboard-response","257","502574","0.0-2.0-3.42","ck","2","pretest","true","4009713","null","","",""
"null","../img/tt/572tt.jpg","","mooney2","image-keyboard-response","258","504577","0.0-2.0-4.42","ck","2","pretest","true","4009713","null","","",""
"497","<p>How strong was your <strong>aha-experience</strong>?</p>","","aha","html-keyboard-response","259","505075","0.0-2.0-5.42","ck","2","pretest","true","4009713","50","../img/tt/572tt.jpg","","2"
"null","<div style=""font-size:60px;""> </div>","","fixation","html-keyboard-response","260","505277","0.0-2.0-0.43","ck","2","pretest","true","4009713","null","","",""
"null","../img/tt/1307tt.jpg","","mooney1","image-keyboard-response","261","508280","0.0-2.0-1.43","ck","2","pretest","true","4009713","null","../img/tt/1307tt.jpg","",""
"680","<p></p>","","recognized","html-keyboard-response","262","508962","0.0-2.0-2.43","ck","2","pretest","true","4009713","78","../img/tt/1307tt.jpg","n",""
"null","../img/gs/1307gs.jpg","","solution","image-keyboard-response","263","510965","0.0-2.0-3.43","ck","2","pretest","true","4009713","null","","",""
"null","../img/tt/1307tt.jpg","","mooney2","image-keyboard-response","264","512969","0.0-2.0-4.43","ck","2","pretest","true","4009713","null","","",""
"1018","<p>How strong was your <strong>aha-experience</strong>?</p>","","aha","html-keyboard-response","265","513988","0.0-2.0-5.43","ck","2","pretest","true","4009713","51","../img/tt/1307tt.jpg","","3"
"null","<div style=""font-size:60px;""> </div>","","fixation","html-keyboard-response","266","514190","0.0-2.0-0.44","ck","2","pretest","true","4009713","null","","",""
"null","../img/tt/353tt.jpg","","mooney1","image-keyboard-response","267","517193","0.0-2.0-1.44","ck","2","pretest","true","4009713","null","../img/tt/353tt.jpg","",""
"398","<p></p>","","recognized","html-keyboard-response","268","517593","0.0-2.0-2.44","ck","2","pretest","true","4009713","89","../img/tt/353tt.jpg","y",""
"null","../img/gs/353gs.jpg","","solution","image-keyboard-response","269","519596","0.0-2.0-3.44","ck","2","pretest","true","4009713","null","","",""
"null","../img/tt/353tt.jpg","","mooney2","image-keyboard-response","270","521599","0.0-2.0-4.44","ck","2","pretest","true","4009713","null","","",""
"5099","<p>How strong was your <strong>aha-experience</strong>?</p>","","aha","html-keyboard-response","271","526699","0.0-2.0-5.44","ck","2","pretest","true","4009713","49","../img/tt/353tt.jpg","","1"
"null","<div style=""font-size:60px;""> </div>","","fixation","html-keyboard-response","272","526901","0.0-2.0-0.45","ck","2","pretest","true","4009713","null","","",""
"null","../img/tt/1311tt.jpg","","mooney1","image-keyboard-response","273","529904","0.0-2.0-1.45","ck","2","pretest","true","4009713","null","../img/tt/1311tt.jpg","",""
"2295","<p></p>","","recognized","html-keyboard-response","274","532201","0.0-2.0-2.45","ck","2","pretest","true","4009713","89","../img/tt/1311tt.jpg","y",""
"null","../img/gs/1311gs.jpg","","solution","image-keyboard-response","275","534205","0.0-2.0-3.45","ck","2","pretest","true","4009713","null","","",""
"null","../img/tt/1311tt.jpg","","mooney2","image-keyboard-response","276","536207","0.0-2.0-4.45","ck","2","pretest","true","4009713","null","","",""
"17697","<p>How strong was your <strong>aha-experience</strong>?</p>","","aha","html-keyboard-response","277","553906","0.0-2.0-5.45","ck","2","pretest","true","4009713","49","../img/tt/1311tt.jpg","","1"
"null","<div style=""font-size:60px;""> </div>","","fixation","html-keyboard-response","278","554108","0.0-2.0-0.46","ck","2","pretest","true","4009713","null","","",""
"null","../img/tt/1369tt.jpg","","mooney1","image-keyboard-response","279","557111","0.0-2.0-1.46","ck","2","pretest","true","4009713","null","../img/tt/1369tt.jpg","",""
"1017","<p></p>","","recognized","html-keyboard-response","280","558129","0.0-2.0-2.46","ck","2","pretest","true","4009713","78","../img/tt/1369tt.jpg","n",""
"null","../img/gs/1369gs.jpg","","solution","image-keyboard-response","281","560133","0.0-2.0-3.46","ck","2","pretest","true","4009713","null","","",""
"null","../img/tt/1369tt.jpg","","mooney2","image-keyboard-response","282","562137","0.0-2.0-4.46","ck","2","pretest","true","4009713","null","","",""
"1083","<p>How strong was your <strong>aha-experience</strong>?</p>","","aha","html-keyboard-response","283","563220","0.0-2.0-5.46","ck","2","pretest","true","4009713","51","../img/tt/1369tt.jpg","","3"
"null","<div style=""font-size:60px;""> </div>","","fixation","html-keyboard-response","284","563423","0.0-2.0-0.47","ck","2","pretest","true","4009713","null","","",""
"null","../img/tt/391tt.jpg","","mooney1","image-keyboard-response","285","566426","0.0-2.0-1.47","ck","2","pretest","true","4009713","null","../img/tt/391tt.jpg","",""
"419","<p></p>","","recognized","html-keyboard-response","286","566846","0.0-2.0-2.47","ck","2","pretest","true","4009713","89","../img/tt/391tt.jpg","y",""
"null","../img/gs/391gs.jpg","","solution","image-keyboard-response","287","568850","0.0-2.0-3.47","ck","2","pretest","true","4009713","null","","",""
"null","../img/tt/391tt.jpg","","mooney2","image-keyboard-response","288","570853","0.0-2.0-4.47","ck","2","pretest","true","4009713","null","","",""
"18896","<p>How strong was your <strong>aha-experience</strong>?</p>","","aha","html-keyboard-response","289","589751","0.0-2.0-5.47","ck","2","pretest","true","4009713","49","../img/tt/391tt.jpg","","1"
"null","<div style=""font-size:60px;""> </div>","","fixation","html-keyboard-response","290","589953","0.0-2.0-0.48","ck","2","pretest","true","4009713","null","","",""
"null","../img/tt/390tt.jpg","","mooney1","image-keyboard-response","291","592955","0.0-2.0-1.48","ck","2","pretest","true","4009713","null","../img/tt/390tt.jpg","",""
"1380","<p></p>","","recognized","html-keyboard-response","292","594337","0.0-2.0-2.48","ck","2","pretest","true","4009713","89","../img/tt/390tt.jpg","y",""
"null","../img/gs/390gs.jpg","","solution","image-keyboard-response","293","596340","0.0-2.0-3.48","ck","2","pretest","true","4009713","null","","",""
"null","../img/tt/390tt.jpg","","mooney2","image-keyboard-response","294","598343","0.0-2.0-4.48","ck","2","pretest","true","4009713","null","","",""
"2938","<p>How strong was your <strong>aha-experience</strong>?</p>","","aha","html-keyboard-response","295","601283","0.0-2.0-5.48","ck","2","pretest","true","4009713","51","../img/tt/390tt.jpg","","3"
"null","<div style=""font-size:60px;""> </div>","","fixation","html-keyboard-response","296","601485","0.0-2.0-0.49","ck","2","pretest","true","4009713","null","","",""
"null","../img/tt/435tt.jpg","","mooney1","image-keyboard-response","297","604489","0.0-2.0-1.49","ck","2","pretest","true","4009713","null","../img/tt/435tt.jpg","",""
"758","<p></p>","","recognized","html-keyboard-response","298","605248","0.0-2.0-2.49","ck","2","pretest","true","4009713","89","../img/tt/435tt.jpg","y",""
"null","../img/gs/435gs.jpg","","solution","image-keyboard-response","299","607253","0.0-2.0-3.49","ck","2","pretest","true","4009713","null","","",""
"null","../img/tt/435tt.jpg","","mooney2","image-keyboard-response","300","609256","0.0-2.0-4.49","ck","2","pretest","true","4009713","null","","",""
"100261","<p>How strong was your <strong>aha-experience</strong>?</p>","","aha","html-keyboard-response","301","709518","0.0-2.0-5.49","ck","2","pretest","true","4009713","49","../img/tt/435tt.jpg","","1"
"null","<div style=""font-size:60px;""> </div>","","fixation","html-keyboard-response","302","709720","0.0-2.0-0.50","ck","2","pretest","true","4009713","null","","",""
"null","../img/tt/1322tt.jpg","","mooney1","image-keyboard-response","303","712723","0.0-2.0-1.50","ck","2","pretest","true","4009713","null","../img/tt/1322tt.jpg","",""
"648","<p></p>","","recognized","html-keyboard-response","304","713373","0.0-2.0-2.50","ck","2","pretest","true","4009713","89","../img/tt/1322tt.jpg","y",""
"null","../img/gs/1322gs.jpg","","solution","image-keyboard-response","305","715376","0.0-2.0-3.50","ck","2","pretest","true","4009713","null","","",""
"null","../img/tt/1322tt.jpg","","mooney2","image-keyboard-response","306","717379","0.0-2.0-4.50","ck","2","pretest","true","4009713","null","","",""
"593","<p>How strong was your <strong>aha-experience</strong>?</p>","","aha","html-keyboard-response","307","717973","0.0-2.0-5.50","ck","2","pretest","true","4009713","49","../img/tt/1322tt.jpg","","1"
"null","<div style=""font-size:60px;""> </div>","","fixation","html-keyboard-response","308","718174","0.0-2.0-0.51","ck","2","pretest","true","4009713","null","","",""
"null","../img/tt/257tt.jpg","","mooney1","image-keyboard-response","309","721177","0.0-2.0-1.51","ck","2","pretest","true","4009713","null","../img/tt/257tt.jpg","",""
"348","<p></p>","","recognized","html-keyboard-response","310","721525","0.0-2.0-2.51","ck","2","pretest","true","4009713","89","../img/tt/257tt.jpg","y",""
"null","../img/gs/257gs.jpg","","solution","image-keyboard-response","311","723529","0.0-2.0-3.51","ck","2","pretest","true","4009713","null","","",""
"null","../img/tt/257tt.jpg","","mooney2","image-keyboard-response","312","725532","0.0-2.0-4.51","ck","2","pretest","true","4009713","null","","",""
"547","<p>How strong was your <strong>aha-experience</strong>?</p>","","aha","html-keyboard-response","313","726080","0.0-2.0-5.51","ck","2","pretest","true","4009713","49","../img/tt/257tt.jpg","","1"
"null","<div style=""font-size:60px;""> </div>","","fixation","html-keyboard-response","314","726282","0.0-2.0-0.52","ck","2","pretest","true","4009713","null","","",""
"null","../img/tt/364tt.jpg","","mooney1","image-keyboard-response","315","729286","0.0-2.0-1.52","ck","2","pretest","true","4009713","null","../img/tt/364tt.jpg","",""
"403","<p></p>","","recognized","html-keyboard-response","316","729690","0.0-2.0-2.52","ck","2","pretest","true","4009713","78","../img/tt/364tt.jpg","n",""
"null","../img/gs/364gs.jpg","","solution","image-keyboard-response","317","731694","0.0-2.0-3.52","ck","2","pretest","true","4009713","null","","",""
"null","../img/tt/364tt.jpg","","mooney2","image-keyboard-response","318","733697","0.0-2.0-4.52","ck","2","pretest","true","4009713","null","","",""
"370","<p>How strong was your <strong>aha-experience</strong>?</p>","","aha","html-keyboard-response","319","734068","0.0-2.0-5.52","ck","2","pretest","true","4009713","49","../img/tt/364tt.jpg","","1"
"null","<div style=""font-size:60px;""> </div>","","fixation","html-keyboard-response","320","734270","0.0-2.0-0.53","ck","2","pretest","true","4009713","null","","",""
"null","../img/tt/269tt.jpg","","mooney1","image-keyboard-response","321","737273","0.0-2.0-1.53","ck","2","pretest","true","4009713","null","../img/tt/269tt.jpg","",""
"843","<p></p>","","recognized","html-keyboard-response","322","738117","0.0-2.0-2.53","ck","2","pretest","true","4009713","89","../img/tt/269tt.jpg","y",""
"null","../img/gs/269gs.jpg","","solution","image-keyboard-response","323","740121","0.0-2.0-3.53","ck","2","pretest","true","4009713","null","","",""
"null","../img/tt/269tt.jpg","","mooney2","image-keyboard-response","324","742124","0.0-2.0-4.53","ck","2","pretest","true","4009713","null","","",""
"906","<p>How strong was your <strong>aha-experience</strong>?</p>","","aha","html-keyboard-response","325","743031","0.0-2.0-5.53","ck","2","pretest","true","4009713","49","../img/tt/269tt.jpg","","1"
"null","<div style=""font-size:60px;""> </div>","","fixation","html-keyboard-response","326","743233","0.0-2.0-0.54","ck","2","pretest","true","4009713","null","","",""
"null","../img/tt/586tt.jpg","","mooney1","image-keyboard-response","327","746236","0.0-2.0-1.54","ck","2","pretest","true","4009713","null","../img/tt/586tt.jpg","",""
"383","<p></p>","","recognized","html-keyboard-response","328","746620","0.0-2.0-2.54","ck","2","pretest","true","4009713","78","../img/tt/586tt.jpg","n",""
"null","../img/gs/586gs.jpg","","solution","image-keyboard-response","329","748624","0.0-2.0-3.54","ck","2","pretest","true","4009713","null","","",""
"null","../img/tt/586tt.jpg","","mooney2","image-keyboard-response","330","750627","0.0-2.0-4.54","ck","2","pretest","true","4009713","null","","",""
"380","<p>How strong was your <strong>aha-experience</strong>?</p>","","aha","html-keyboard-response","331","751008","0.0-2.0-5.54","ck","2","pretest","true","4009713","51","../img/tt/586tt.jpg","","3"
"null","<div style=""font-size:60px;""> </div>","","fixation","html-keyboard-response","332","751210","0.0-2.0-0.55","ck","2","pretest","true","4009713","null","","",""
"null","../img/tt/344tt.jpg","","mooney1","image-keyboard-response","333","754214","0.0-2.0-1.55","ck","2","pretest","true","4009713","null","../img/tt/344tt.jpg","",""
"372","<p></p>","","recognized","html-keyboard-response","334","754587","0.0-2.0-2.55","ck","2","pretest","true","4009713","78","../img/tt/344tt.jpg","n",""
"null","../img/gs/344gs.jpg","","solution","image-keyboard-response","335","756591","0.0-2.0-3.55","ck","2","pretest","true","4009713","null","","",""
"null","../img/tt/344tt.jpg","","mooney2","image-keyboard-response","336","758594","0.0-2.0-4.55","ck","2","pretest","true","4009713","null","","",""
"609","<p>How strong was your <strong>aha-experience</strong>?</p>","","aha","html-keyboard-response","337","759204","0.0-2.0-5.55","ck","2","pretest","true","4009713","50","../img/tt/344tt.jpg","","2"
"null","<div style=""font-size:60px;""> </div>","","fixation","html-keyboard-response","338","759406","0.0-2.0-0.56","ck","2","pretest","true","4009713","null","","",""
"null","../img/tt/1300tt.jpg","","mooney1","image-keyboard-response","339","762409","0.0-2.0-1.56","ck","2","pretest","true","4009713","null","../img/tt/1300tt.jpg","",""
"337","<p></p>","","recognized","html-keyboard-response","340","762747","0.0-2.0-2.56","ck","2","pretest","true","4009713","89","../img/tt/1300tt.jpg","y",""
"null","../img/gs/1300gs.jpg","","solution","image-keyboard-response","341","764751","0.0-2.0-3.56","ck","2","pretest","true","4009713","null","","",""
"null","../img/tt/1300tt.jpg","","mooney2","image-keyboard-response","342","766754","0.0-2.0-4.56","ck","2","pretest","true","4009713","null","","",""
"315","<p>How strong was your <strong>aha-experience</strong>?</p>","","aha","html-keyboard-response","343","767069","0.0-2.0-5.56","ck","2","pretest","true","4009713","49","../img/tt/1300tt.jpg","","1"
"null","<div style=""font-size:60px;""> </div>","","fixation","html-keyboard-response","344","767271","0.0-2.0-0.57","ck","2","pretest","true","4009713","null","","",""
"null","../img/tt/130tt.jpg","","mooney1","image-keyboard-response","345","770274","0.0-2.0-1.57","ck","2","pretest","true","4009713","null","../img/tt/130tt.jpg","",""
"375","<p></p>","","recognized","html-keyboard-response","346","770650","0.0-2.0-2.57","ck","2","pretest","true","4009713","89","../img/tt/130tt.jpg","y",""
"null","../img/gs/130gs.jpg","","solution","image-keyboard-response","347","772653","0.0-2.0-3.57","ck","2","pretest","true","4009713","null","","",""
"null","../img/tt/130tt.jpg","","mooney2","image-keyboard-response","348","774656","0.0-2.0-4.57","ck","2","pretest","true","4009713","null","","",""
"290","<p>How strong was your <strong>aha-experience</strong>?</p>","","aha","html-keyboard-response","349","774947","0.0-2.0-5.57","ck","2","pretest","true","4009713","49","../img/tt/130tt.jpg","","1"
"null","<div style=""font-size:60px;""> </div>","","fixation","html-keyboard-response","350","775149","0.0-2.0-0.58","ck","2","pretest","true","4009713","null","","",""
"null","../img/tt/210tt.jpg","","mooney1","image-keyboard-response","351","778153","0.0-2.0-1.58","ck","2","pretest","true","4009713","null","../img/tt/210tt.jpg","",""
"824","<p></p>","","recognized","html-keyboard-response","352","778977","0.0-2.0-2.58","ck","2","pretest","true","4009713","78","../img/tt/210tt.jpg","n",""
"null","../img/gs/210gs.jpg","","solution","image-keyboard-response","353","780981","0.0-2.0-3.58","ck","2","pretest","true","4009713","null","","",""
"null","../img/tt/210tt.jpg","","mooney2","image-keyboard-response","354","782984","0.0-2.0-4.58","ck","2","pretest","true","4009713","null","","",""
"526","<p>How strong was your <strong>aha-experience</strong>?</p>","","aha","html-keyboard-response","355","783512","0.0-2.0-5.58","ck","2","pretest","true","4009713","52","../img/tt/210tt.jpg","","4"
"null","<div style=""font-size:60px;""> </div>","","fixation","html-keyboard-response","356","783713","0.0-2.0-0.59","ck","2","pretest","true","4009713","null","","",""
"null","../img/tt/600tt.jpg","","mooney1","image-keyboard-response","357","786716","0.0-2.0-1.59","ck","2","pretest","true","4009713","null","../img/tt/600tt.jpg","",""
"551","<p></p>","","recognized","html-keyboard-response","358","787268","0.0-2.0-2.59","ck","2","pretest","true","4009713","78","../img/tt/600tt.jpg","n",""
"null","../img/gs/600gs.jpg","","solution","image-keyboard-response","359","789271","0.0-2.0-3.59","ck","2","pretest","true","4009713","null","","",""
"null","../img/tt/600tt.jpg","","mooney2","image-keyboard-response","360","791275","0.0-2.0-4.59","ck","2","pretest","true","4009713","null","","",""
"390","<p>How strong was your <strong>aha-experience</strong>?</p>","","aha","html-keyboard-response","361","791666","0.0-2.0-5.59","ck","2","pretest","true","4009713","50","../img/tt/600tt.jpg","","2"
"null","<div style=""font-size:60px;""> </div>","","fixation","html-keyboard-response","362","791868","0.0-2.0-0.60","ck","2","pretest","true","4009713","null","","",""
"null","../img/tt/1320tt.jpg","","mooney1","image-keyboard-response","363","794872","0.0-2.0-1.60","ck","2","pretest","true","4009713","null","../img/tt/1320tt.jpg","",""
"339","<p></p>","","recognized","html-keyboard-response","364","795211","0.0-2.0-2.60","ck","2","pretest","true","4009713","78","../img/tt/1320tt.jpg","n",""
"null","../img/gs/1320gs.jpg","","solution","image-keyboard-response","365","797215","0.0-2.0-3.60","ck","2","pretest","true","4009713","null","","",""
"null","../img/tt/1320tt.jpg","","mooney2","image-keyboard-response","366","799218","0.0-2.0-4.60","ck","2","pretest","true","4009713","null","","",""
"392","<p>How strong was your <strong>aha-experience</strong>?</p>","","aha","html-keyboard-response","367","799610","0.0-2.0-5.60","ck","2","pretest","true","4009713","53","../img/tt/1320tt.jpg","","5"
"null","<div style=""font-size:60px;""> </div>","","fixation","html-keyboard-response","368","799812","0.0-2.0-0.61","ck","2","pretest","true","4009713","null","","",""
"null","../img/tt/423tt.jpg","","mooney1","image-keyboard-response","369","802815","0.0-2.0-1.61","ck","2","pretest","true","4009713","null","../img/tt/423tt.jpg","",""
"532","<p></p>","","recognized","html-keyboard-response","370","803348","0.0-2.0-2.61","ck","2","pretest","true","4009713","78","../img/tt/423tt.jpg","n",""
"null","../img/gs/423gs.jpg","","solution","image-keyboard-response","371","805352","0.0-2.0-3.61","ck","2","pretest","true","4009713","null","","",""
"null","../img/tt/423tt.jpg","","mooney2","image-keyboard-response","372","807355","0.0-2.0-4.61","ck","2","pretest","true","4009713","null","","",""
"442","<p>How strong was your <strong>aha-experience</strong>?</p>","","aha","html-keyboard-response","373","807798","0.0-2.0-5.61","ck","2","pretest","true","4009713","54","../img/tt/423tt.jpg","","6"
"null","<div style=""font-size:60px;""> </div>","","fixation","html-keyboard-response","374","808000","0.0-2.0-0.62","ck","2","pretest","true","4009713","null","","",""
"null","../img/tt/337tt.jpg","","mooney1","image-keyboard-response","375","811003","0.0-2.0-1.62","ck","2","pretest","true","4009713","null","../img/tt/337tt.jpg","",""
"370","<p></p>","","recognized","html-keyboard-response","376","811373","0.0-2.0-2.62","ck","2","pretest","true","4009713","89","../img/tt/337tt.jpg","y",""
"null","../img/gs/337gs.jpg","","solution","image-keyboard-response","377","813377","0.0-2.0-3.62","ck","2","pretest","true","4009713","null","","",""
"null","../img/tt/337tt.jpg","","mooney2","image-keyboard-response","378","815380","0.0-2.0-4.62","ck","2","pretest","true","4009713","null","","",""
"369","<p>How strong was your <strong>aha-experience</strong>?</p>","","aha","html-keyboard-response","379","815750","0.0-2.0-5.62","ck","2","pretest","true","4009713","49","../img/tt/337tt.jpg","","1"
"null","<div style=""font-size:60px;""> </div>","","fixation","html-keyboard-response","380","815952","0.0-2.0-0.63","ck","2","pretest","true","4009713","null","","",""
"null","../img/tt/1348tt.jpg","","mooney1","image-keyboard-response","381","818956","0.0-2.0-1.63","ck","2","pretest","true","4009713","null","../img/tt/1348tt.jpg","",""
"378","<p></p>","","recognized","html-keyboard-response","382","819335","0.0-2.0-2.63","ck","2","pretest","true","4009713","89","../img/tt/1348tt.jpg","y",""
"null","../img/gs/1348gs.jpg","","solution","image-keyboard-response","383","821339","0.0-2.0-3.63","ck","2","pretest","true","4009713","null","","",""
"null","../img/tt/1348tt.jpg","","mooney2","image-keyboard-response","384","823342","0.0-2.0-4.63","ck","2","pretest","true","4009713","null","","",""
"318","<p>How strong was your <strong>aha-experience</strong>?</p>","","aha","html-keyboard-response","385","823660","0.0-2.0-5.63","ck","2","pretest","true","4009713","49","../img/tt/1348tt.jpg","","1"
"null","<div style=""font-size:60px;""> </div>","","fixation","html-keyboard-response","386","823862","0.0-2.0-0.64","ck","2","pretest","true","4009713","null","","",""
"null","../img/tt/463tt.jpg","","mooney1","image-keyboard-response","387","826865","0.0-2.0-1.64","ck","2","pretest","true","4009713","null","../img/tt/463tt.jpg","",""
"323","<p></p>","","recognized","html-keyboard-response","388","827189","0.0-2.0-2.64","ck","2","pretest","true","4009713","89","../img/tt/463tt.jpg","y",""
"null","../img/gs/463gs.jpg","","solution","image-keyboard-response","389","829192","0.0-2.0-3.64","ck","2","pretest","true","4009713","null","","",""
"null","../img/tt/463tt.jpg","","mooney2","image-keyboard-response","390","831196","0.0-2.0-4.64","ck","2","pretest","true","4009713","null","","",""
"371","<p>How strong was your <strong>aha-experience</strong>?</p>","","aha","html-keyboard-response","391","831567","0.0-2.0-5.64","ck","2","pretest","true","4009713","49","../img/tt/463tt.jpg","","1"
"null","<div style=""font-size:60px;""> </div>","","fixation","html-keyboard-response","392","831769","0.0-2.0-0.65","ck","2","pretest","true","4009713","null","","",""
"null","../img/tt/411tt.jpg","","mooney1","image-keyboard-response","393","834772","0.0-2.0-1.65","ck","2","pretest","true","4009713","null","../img/tt/411tt.jpg","",""
"313","<p></p>","","recognized","html-keyboard-response","394","835086","0.0-2.0-2.65","ck","2","pretest","true","4009713","89","../img/tt/411tt.jpg","y",""
"null","../img/gs/411gs.jpg","","solution","image-keyboard-response","395","837090","0.0-2.0-3.65","ck","2","pretest","true","4009713","null","","",""
"null","../img/tt/411tt.jpg","","mooney2","image-keyboard-response","396","839093","0.0-2.0-4.65","ck","2","pretest","true","4009713","null","","",""
"575","<p>How strong was your <strong>aha-experience</strong>?</p>","","aha","html-keyboard-response","397","839669","0.0-2.0-5.65","ck","2","pretest","true","4009713","49","../img/tt/411tt.jpg","","1"
"null","<div style=""font-size:60px;""> </div>","","fixation","html-keyboard-response","398","839871","0.0-2.0-0.66","ck","2","pretest","true","4009713","null","","",""
"null","../img/tt/462tt.jpg","","mooney1","image-keyboard-response","399","842874","0.0-2.0-1.66","ck","2","pretest","true","4009713","null","../img/tt/462tt.jpg","",""
"5462","<p></p>","","recognized","html-keyboard-response","400","848338","0.0-2.0-2.66","ck","2","pretest","true","4009713","89","../img/tt/462tt.jpg","y",""
"null","../img/gs/462gs.jpg","","solution","image-keyboard-response","401","850342","0.0-2.0-3.66","ck","2","pretest","true","4009713","null","","",""
"null","../img/tt/462tt.jpg","","mooney2","image-keyboard-response","402","852345","0.0-2.0-4.66","ck","2","pretest","true","4009713","null","","",""
"390","<p>How strong was your <strong>aha-experience</strong>?</p>","","aha","html-keyboard-response","403","852737","0.0-2.0-5.66","ck","2","pretest","true","4009713","49","../img/tt/462tt.jpg","","1"
"null","<div style=""font-size:60px;""> </div>","","fixation","html-keyboard-response","404","852939","0.0-2.0-0.67","ck","2","pretest","true","4009713","null","","",""
"null","../img/tt/244tt.jpg","","mooney1","image-keyboard-response","405","855942","0.0-2.0-1.67","ck","2","pretest","true","4009713","null","../img/tt/244tt.jpg","",""
"604","<p></p>","","recognized","html-keyboard-response","406","856548","0.0-2.0-2.67","ck","2","pretest","true","4009713","78","../img/tt/244tt.jpg","n",""
"null","../img/gs/244gs.jpg","","solution","image-keyboard-response","407","858552","0.0-2.0-3.67","ck","2","pretest","true","4009713","null","","",""
"null","../img/tt/244tt.jpg","","mooney2","image-keyboard-response","408","860555","0.0-2.0-4.67","ck","2","pretest","true","4009713","null","","",""
"571","<p>How strong was your <strong>aha-experience</strong>?</p>","","aha","html-keyboard-response","409","861127","0.0-2.0-5.67","ck","2","pretest","true","4009713","55","../img/tt/244tt.jpg","","7"
"null","<div style=""font-size:60px;""> </div>","","fixation","html-keyboard-response","410","861329","0.0-2.0-0.68","ck","2","pretest","true","4009713","null","","",""
"null","../img/tt/1360tt.jpg","","mooney1","image-keyboard-response","411","864333","0.0-2.0-1.68","ck","2","pretest","true","4009713","null","../img/tt/1360tt.jpg","",""
"371","<p></p>","","recognized","html-keyboard-response","412","864705","0.0-2.0-2.68","ck","2","pretest","true","4009713","78","../img/tt/1360tt.jpg","n",""
"null","../img/gs/1360gs.jpg","","solution","image-keyboard-response","413","866709","0.0-2.0-3.68","ck","2","pretest","true","4009713","null","","",""
"null","../img/tt/1360tt.jpg","","mooney2","image-keyboard-response","414","868712","0.0-2.0-4.68","ck","2","pretest","true","4009713","null","","",""
"2586","<p>How strong was your <strong>aha-experience</strong>?</p>","","aha","html-keyboard-response","415","871299","0.0-2.0-5.68","ck","2","pretest","true","4009713","50","../img/tt/1360tt.jpg","","2"
"null","<div style=""font-size:60px;""> </div>","","fixation","html-keyboard-response","416","871501","0.0-2.0-0.69","ck","2","pretest","true","4009713","null","","",""
"null","../img/tt/438tt.jpg","","mooney1","image-keyboard-response","417","874504","0.0-2.0-1.69","ck","2","pretest","true","4009713","null","../img/tt/438tt.jpg","",""
"741","<p></p>","","recognized","html-keyboard-response","418","875245","0.0-2.0-2.69","ck","2","pretest","true","4009713","78","../img/tt/438tt.jpg","n",""
"null","../img/gs/438gs.jpg","","solution","image-keyboard-response","419","877249","0.0-2.0-3.69","ck","2","pretest","true","4009713","null","","",""
"null","../img/tt/438tt.jpg","","mooney2","image-keyboard-response","420","879252","0.0-2.0-4.69","ck","2","pretest","true","4009713","null","","",""
"707","<p>How strong was your <strong>aha-experience</strong>?</p>","","aha","html-keyboard-response","421","879961","0.0-2.0-5.69","ck","2","pretest","true","4009713","50","../img/tt/438tt.jpg","","2"
"null","<div style=""font-size:60px;""> </div>","","fixation","html-keyboard-response","422","880163","0.0-2.0-0.70","ck","2","pretest","true","4009713","null","","",""
"null","../img/tt/308tt.jpg","","mooney1","image-keyboard-response","423","883167","0.0-2.0-1.70","ck","2","pretest","true","4009713","null","../img/tt/308tt.jpg","",""
"423","<p></p>","","recognized","html-keyboard-response","424","883591","0.0-2.0-2.70","ck","2","pretest","true","4009713","78","../img/tt/308tt.jpg","n",""
"null","../img/gs/308gs.jpg","","solution","image-keyboard-response","425","885595","0.0-2.0-3.70","ck","2","pretest","true","4009713","null","","",""
"null","../img/tt/308tt.jpg","","mooney2","image-keyboard-response","426","887598","0.0-2.0-4.70","ck","2","pretest","true","4009713","null","","",""
"373","<p>How strong was your <strong>aha-experience</strong>?</p>","","aha","html-keyboard-response","427","887972","0.0-2.0-5.70","ck","2","pretest","true","4009713","49","../img/tt/308tt.jpg","","1"
"null","<div style=""font-size:60px;""> </div>","","fixation","html-keyboard-response","428","888173","0.0-2.0-0.71","ck","2","pretest","true","4009713","null","","",""
"null","../img/tt/296tt.jpg","","mooney1","image-keyboard-response","429","891177","0.0-2.0-1.71","ck","2","pretest","true","4009713","null","../img/tt/296tt.jpg","",""
"410","<p></p>","","recognized","html-keyboard-response","430","891588","0.0-2.0-2.71","ck","2","pretest","true","4009713","78","../img/tt/296tt.jpg","n",""
"null","../img/gs/296gs.jpg","","solution","image-keyboard-response","431","893592","0.0-2.0-3.71","ck","2","pretest","true","4009713","null","","",""
"null","../img/tt/296tt.jpg","","mooney2","image-keyboard-response","432","895595","0.0-2.0-4.71","ck","2","pretest","true","4009713","null","","",""
"278","<p>How strong was your <strong>aha-experience</strong>?</p>","","aha","html-keyboard-response","433","895874","0.0-2.0-5.71","ck","2","pretest","true","4009713","55","../img/tt/296tt.jpg","","7"
"null","<div style=""font-size:60px;""> </div>","","fixation","html-keyboard-response","434","896076","0.0-2.0-0.72","ck","2","pretest","true","4009713","null","","",""
"null","../img/tt/206tt.jpg","","mooney1","image-keyboard-response","435","899079","0.0-2.0-1.72","ck","2","pretest","true","4009713","null","../img/tt/206tt.jpg","",""
"418","<p></p>","","recognized","html-keyboard-response","436","899498","0.0-2.0-2.72","ck","2","pretest","true","4009713","78","../img/tt/206tt.jpg","n",""
"null","../img/gs/206gs.jpg","","solution","image-keyboard-response","437","901502","0.0-2.0-3.72","ck","2","pretest","true","4009713","null","","",""
"null","../img/tt/206tt.jpg","","mooney2","image-keyboard-response","438","903505","0.0-2.0-4.72","ck","2","pretest","true","4009713","null","","",""
"309","<p>How strong was your <strong>aha-experience</strong>?</p>","","aha","html-keyboard-response","439","903815","0.0-2.0-5.72","ck","2","pretest","true","4009713","50","../img/tt/206tt.jpg","","2"
"null","<div style=""font-size:60px;""> </div>","","fixation","html-keyboard-response","440","904017","0.0-2.0-0.73","ck","2","pretest","true","4009713","null","","",""
"null","../img/tt/235tt.jpg","","mooney1","image-keyboard-response","441","907020","0.0-2.0-1.73","ck","2","pretest","true","4009713","null","../img/tt/235tt.jpg","",""
"363","<p></p>","","recognized","html-keyboard-response","442","907384","0.0-2.0-2.73","ck","2","pretest","true","4009713","89","../img/tt/235tt.jpg","y",""
"null","../img/gs/235gs.jpg","","solution","image-keyboard-response","443","909388","0.0-2.0-3.73","ck","2","pretest","true","4009713","null","","",""
"null","../img/tt/235tt.jpg","","mooney2","image-keyboard-response","444","911390","0.0-2.0-4.73","ck","2","pretest","true","4009713","null","","",""
"1154","<p>How strong was your <strong>aha-experience</strong>?</p>","","aha","html-keyboard-response","445","912545","0.0-2.0-5.73","ck","2","pretest","true","4009713","49","../img/tt/235tt.jpg","","1"
"null","<div style=""font-size:60px;""> </div>","","fixation","html-keyboard-response","446","912746","0.0-2.0-0.74","ck","2","pretest","true","4009713","null","","",""
"null","../img/tt/378tt.jpg","","mooney1","image-keyboard-response","447","915748","0.0-2.0-1.74","ck","2","pretest","true","4009713","null","../img/tt/378tt.jpg","",""
"1343","<p></p>","","recognized","html-keyboard-response","448","917091","0.0-2.0-2.74","ck","2","pretest","true","4009713","78","../img/tt/378tt.jpg","n",""
"null","../img/gs/378gs.jpg","","solution","image-keyboard-response","449","919095","0.0-2.0-3.74","ck","2","pretest","true","4009713","null","","",""
"null","../img/tt/378tt.jpg","","mooney2","image-keyboard-response","450","921098","0.0-2.0-4.74","ck","2","pretest","true","4009713","null","","",""
"449","<p>How strong was your <strong>aha-experience</strong>?</p>","","aha","html-keyboard-response","451","921547","0.0-2.0-5.74","ck","2","pretest","true","4009713","53","../img/tt/378tt.jpg","","5"
"null","<div style=""font-size:60px;""> </div>","","fixation","html-keyboard-response","452","921750","0.0-2.0-0.75","ck","2","pretest","true","4009713","null","","",""
"null","../img/tt/597tt.jpg","","mooney1","image-keyboard-response","453","924753","0.0-2.0-1.75","ck","2","pretest","true","4009713","null","../img/tt/597tt.jpg","",""
"329","<p></p>","","recognized","html-keyboard-response","454","925083","0.0-2.0-2.75","ck","2","pretest","true","4009713","89","../img/tt/597tt.jpg","y",""
"null","../img/gs/597gs.jpg","","solution","image-keyboard-response","455","927087","0.0-2.0-3.75","ck","2","pretest","true","4009713","null","","",""
"null","../img/tt/597tt.jpg","","mooney2","image-keyboard-response","456","929090","0.0-2.0-4.75","ck","2","pretest","true","4009713","null","","",""
"363","<p>How strong was your <strong>aha-experience</strong>?</p>","","aha","html-keyboard-response","457","929453","0.0-2.0-5.75","ck","2","pretest","true","4009713","49","../img/tt/597tt.jpg","","1"
"null","<div style=""font-size:60px;""> </div>","","fixation","html-keyboard-response","458","929655","0.0-2.0-0.76","ck","2","pretest","true","4009713","null","","",""
"null","../img/tt/539tt.jpg","","mooney1","image-keyboard-response","459","932659","0.0-2.0-1.76","ck","2","pretest","true","4009713","null","../img/tt/539tt.jpg","",""
"468","<p></p>","","recognized","html-keyboard-response","460","933127","0.0-2.0-2.76","ck","2","pretest","true","4009713","78","../img/tt/539tt.jpg","n",""
"null","../img/gs/539gs.jpg","","solution","image-keyboard-response","461","935131","0.0-2.0-3.76","ck","2","pretest","true","4009713","null","","",""
"null","../img/tt/539tt.jpg","","mooney2","image-keyboard-response","462","937134","0.0-2.0-4.76","ck","2","pretest","true","4009713","null","","",""
"536","<p>How strong was your <strong>aha-experience</strong>?</p>","","aha","html-keyboard-response","463","937671","0.0-2.0-5.76","ck","2","pretest","true","4009713","53","../img/tt/539tt.jpg","","5"
"null","<div style=""font-size:60px;""> </div>","","fixation","html-keyboard-response","464","937874","0.0-2.0-0.77","ck","2","pretest","true","4009713","null","","",""
"null","../img/tt/1325tt.jpg","","mooney1","image-keyboard-response","465","940877","0.0-2.0-1.77","ck","2","pretest","true","4009713","null","../img/tt/1325tt.jpg","",""
"406","<p></p>","","recognized","html-keyboard-response","466","941283","0.0-2.0-2.77","ck","2","pretest","true","4009713","89","../img/tt/1325tt.jpg","y",""
"null","../img/gs/1325gs.jpg","","solution","image-keyboard-response","467","943287","0.0-2.0-3.77","ck","2","pretest","true","4009713","null","","",""
"null","../img/tt/1325tt.jpg","","mooney2","image-keyboard-response","468","945290","0.0-2.0-4.77","ck","2","pretest","true","4009713","null","","",""
"333","<p>How strong was your <strong>aha-experience</strong>?</p>","","aha","html-keyboard-response","469","945623","0.0-2.0-5.77","ck","2","pretest","true","4009713","49","../img/tt/1325tt.jpg","","1"
"null","<div style=""font-size:60px;""> </div>","","fixation","html-keyboard-response","470","945825","0.0-2.0-0.78","ck","2","pretest","true","4009713","null","","",""
"null","../img/tt/333tt.jpg","","mooney1","image-keyboard-response","471","948828","0.0-2.0-1.78","ck","2","pretest","true","4009713","null","../img/tt/333tt.jpg","",""
"490","<p></p>","","recognized","html-keyboard-response","472","949320","0.0-2.0-2.78","ck","2","pretest","true","4009713","78","../img/tt/333tt.jpg","n",""
"null","../img/gs/333gs.jpg","","solution","image-keyboard-response","473","951324","0.0-2.0-3.78","ck","2","pretest","true","4009713","null","","",""
"null","../img/tt/333tt.jpg","","mooney2","image-keyboard-response","474","953327","0.0-2.0-4.78","ck","2","pretest","true","4009713","null","","",""
"476","<p>How strong was your <strong>aha-experience</strong>?</p>","","aha","html-keyboard-response","475","953804","0.0-2.0-5.78","ck","2","pretest","true","4009713","50","../img/tt/333tt.jpg","","2"
"null","<div style=""font-size:60px;""> </div>","","fixation","html-keyboard-response","476","954006","0.0-2.0-0.79","ck","2","pretest","true","4009713","null","","",""
"null","../img/tt/315tt.jpg","","mooney1","image-keyboard-response","477","957009","0.0-2.0-1.79","ck","2","pretest","true","4009713","null","../img/tt/315tt.jpg","",""
"693","<p></p>","","recognized","html-keyboard-response","478","957702","0.0-2.0-2.79","ck","2","pretest","true","4009713","78","../img/tt/315tt.jpg","n",""
"null","../img/gs/315gs.jpg","","solution","image-keyboard-response","479","959706","0.0-2.0-3.79","ck","2","pretest","true","4009713","null","","",""
"null","../img/tt/315tt.jpg","","mooney2","image-keyboard-response","480","961709","0.0-2.0-4.79","ck","2","pretest","true","4009713","null","","",""
"258","<p>How strong was your <strong>aha-experience</strong>?</p>","","aha","html-keyboard-response","481","961967","0.0-2.0-5.79","ck","2","pretest","true","4009713","53","../img/tt/315tt.jpg","","5"
"null","<div style=""font-size:60px;""> </div>","","fixation","html-keyboard-response","482","962169","0.0-2.0-0.80","ck","2","pretest","true","4009713","null","","",""
"null","../img/tt/174tt.jpg","","mooney1","image-keyboard-response","483","965172","0.0-2.0-1.80","ck","2","pretest","true","4009713","null","../img/tt/174tt.jpg","",""
"353","<p></p>","","recognized","html-keyboard-response","484","965527","0.0-2.0-2.80","ck","2","pretest","true","4009713","78","../img/tt/174tt.jpg","n",""
"null","../img/gs/174gs.jpg","","solution","image-keyboard-response","485","967530","0.0-2.0-3.80","ck","2","pretest","true","4009713","null","","",""
"null","../img/tt/174tt.jpg","","mooney2","image-keyboard-response","486","969533","0.0-2.0-4.80","ck","2","pretest","true","4009713","null","","",""
"587","<p>How strong was your <strong>aha-experience</strong>?</p>","","aha","html-keyboard-response","487","970121","0.0-2.0-5.80","ck","2","pretest","true","4009713","51","../img/tt/174tt.jpg","","3"
"null","<div style=""font-size:60px;""> </div>","","fixation","html-keyboard-response","488","970323","0.0-2.0-0.81","ck","2","pretest","true","4009713","null","","",""
"null","../img/tt/266tt.jpg","","mooney1","image-keyboard-response","489","973327","0.0-2.0-1.81","ck","2","pretest","true","4009713","null","../img/tt/266tt.jpg","",""
"508","<p></p>","","recognized","html-keyboard-response","490","973836","0.0-2.0-2.81","ck","2","pretest","true","4009713","78","../img/tt/266tt.jpg","n",""
"null","../img/gs/266gs.jpg","","solution","image-keyboard-response","491","975840","0.0-2.0-3.81","ck","2","pretest","true","4009713","null","","",""
"null","../img/tt/266tt.jpg","","mooney2","image-keyboard-response","492","977843","0.0-2.0-4.81","ck","2","pretest","true","4009713","null","","",""
"430","<p>How strong was your <strong>aha-experience</strong>?</p>","","aha","html-keyboard-response","493","978274","0.0-2.0-5.81","ck","2","pretest","true","4009713","49","../img/tt/266tt.jpg","","1"
"null","<div style=""font-size:60px;""> </div>","","fixation","html-keyboard-response","494","978475","0.0-2.0-0.82","ck","2","pretest","true","4009713","null","","",""
"null","../img/tt/1332tt.jpg","","mooney1","image-keyboard-response","495","981485","0.0-2.0-1.82","ck","2","pretest","true","4009713","null","../img/tt/1332tt.jpg","",""
"544","<p></p>","","recognized","html-keyboard-response","496","982030","0.0-2.0-2.82","ck","2","pretest","true","4009713","78","../img/tt/1332tt.jpg","n",""
"null","../img/gs/1332gs.jpg","","solution","image-keyboard-response","497","984037","0.0-2.0-3.82","ck","2","pretest","true","4009713","null","","",""
"null","../img/tt/1332tt.jpg","","mooney2","image-keyboard-response","498","986043","0.0-2.0-4.82","ck","2","pretest","true","4009713","null","","",""
"406","<p>How strong was your <strong>aha-experience</strong>?</p>","","aha","html-keyboard-response","499","986450","0.0-2.0-5.82","ck","2","pretest","true","4009713","52","../img/tt/1332tt.jpg","","4"
"null","<div style=""font-size:60px;""> </div>","","fixation","html-keyboard-response","500","986652","0.0-2.0-0.83","ck","2","pretest","true","4009713","null","","",""
"null","../img/tt/516tt.jpg","","mooney1","image-keyboard-response","501","989659","0.0-2.0-1.83","ck","2","pretest","true","4009713","null","../img/tt/516tt.jpg","",""
"591","<p></p>","","recognized","html-keyboard-response","502","990252","0.0-2.0-2.83","ck","2","pretest","true","4009713","78","../img/tt/516tt.jpg","n",""
"null","../img/gs/516gs.jpg","","solution","image-keyboard-response","503","992258","0.0-2.0-3.83","ck","2","pretest","true","4009713","null","","",""
"null","../img/tt/516tt.jpg","","mooney2","image-keyboard-response","504","994263","0.0-2.0-4.83","ck","2","pretest","true","4009713","null","","",""
"773","<p>How strong was your <strong>aha-experience</strong>?</p>","","aha","html-keyboard-response","505","995037","0.0-2.0-5.83","ck","2","pretest","true","4009713","49","../img/tt/516tt.jpg","","1"
"null","<div style=""font-size:60px;""> </div>","","fixation","html-keyboard-response","506","995240","0.0-2.0-0.84","ck","2","pretest","true","4009713","null","","",""
"null","../img/tt/573tt.jpg","","mooney1","image-keyboard-response","507","998246","0.0-2.0-1.84","ck","2","pretest","true","4009713","null","../img/tt/573tt.jpg","",""
"390","<p></p>","","recognized","html-keyboard-response","508","998637","0.0-2.0-2.84","ck","2","pretest","true","4009713","89","../img/tt/573tt.jpg","y",""
"null","../img/gs/573gs.jpg","","solution","image-keyboard-response","509","1000642","0.0-2.0-3.84","ck","2","pretest","true","4009713","null","","",""
"null","../img/tt/573tt.jpg","","mooney2","image-keyboard-response","510","1002645","0.0-2.0-4.84","ck","2","pretest","true","4009713","null","","",""
"407","<p>How strong was your <strong>aha-experience</strong>?</p>","","aha","html-keyboard-response","511","1003053","0.0-2.0-5.84","ck","2","pretest","true","4009713","49","../img/tt/573tt.jpg","","1"
"null","<div style=""font-size:60px;""> </div>","","fixation","html-keyboard-response","512","1003255","0.0-2.0-0.85","ck","2","pretest","true","4009713","null","","",""
"null","../img/tt/552tt.jpg","","mooney1","image-keyboard-response","513","1006260","0.0-2.0-1.85","ck","2","pretest","true","4009713","null","../img/tt/552tt.jpg","",""
"332","<p></p>","","recognized","html-keyboard-response","514","1006592","0.0-2.0-2.85","ck","2","pretest","true","4009713","89","../img/tt/552tt.jpg","y",""
"null","../img/gs/552gs.jpg","","solution","image-keyboard-response","515","1008597","0.0-2.0-3.85","ck","2","pretest","true","4009713","null","","",""
"null","../img/tt/552tt.jpg","","mooney2","image-keyboard-response","516","1010600","0.0-2.0-4.85","ck","2","pretest","true","4009713","null","","",""
"477","<p>How strong was your <strong>aha-experience</strong>?</p>","","aha","html-keyboard-response","517","1011078","0.0-2.0-5.85","ck","2","pretest","true","4009713","49","../img/tt/552tt.jpg","","1"
"null","<div style=""font-size:60px;""> </div>","","fixation","html-keyboard-response","518","1011280","0.0-2.0-0.86","ck","2","pretest","true","4009713","null","","",""
"null","../img/tt/414tt.jpg","","mooney1","image-keyboard-response","519","1014284","0.0-2.0-1.86","ck","2","pretest","true","4009713","null","../img/tt/414tt.jpg","",""
"802","<p></p>","","recognized","html-keyboard-response","520","1015087","0.0-2.0-2.86","ck","2","pretest","true","4009713","89","../img/tt/414tt.jpg","y",""
"null","../img/gs/414gs.jpg","","solution","image-keyboard-response","521","1017091","0.0-2.0-3.86","ck","2","pretest","true","4009713","null","","",""
"null","../img/tt/414tt.jpg","","mooney2","image-keyboard-response","522","1019095","0.0-2.0-4.86","ck","2","pretest","true","4009713","null","","",""
"540","<p>How strong was your <strong>aha-experience</strong>?</p>","","aha","html-keyboard-response","523","1019636","0.0-2.0-5.86","ck","2","pretest","true","4009713","49","../img/tt/414tt.jpg","","1"
"null","<div style=""font-size:60px;""> </div>","","fixation","html-keyboard-response","524","1019838","0.0-2.0-0.87","ck","2","pretest","true","4009713","null","","",""
"null","../img/tt/264tt.jpg","","mooney1","image-keyboard-response","525","1022842","0.0-2.0-1.87","ck","2","pretest","true","4009713","null","../img/tt/264tt.jpg","",""
"679","<p></p>","","recognized","html-keyboard-response","526","1023523","0.0-2.0-2.87","ck","2","pretest","true","4009713","78","../img/tt/264tt.jpg","n",""
"null","../img/gs/264gs.jpg","","solution","image-keyboard-response","527","1025527","0.0-2.0-3.87","ck","2","pretest","true","4009713","null","","",""
"null","../img/tt/264tt.jpg","","mooney2","image-keyboard-response","528","1027530","0.0-2.0-4.87","ck","2","pretest","true","4009713","null","","",""
"388","<p>How strong was your <strong>aha-experience</strong>?</p>","","aha","html-keyboard-response","529","1027920","0.0-2.0-5.87","ck","2","pretest","true","4009713","52","../img/tt/264tt.jpg","","4"
"null","<div style=""font-size:60px;""> </div>","","fixation","html-keyboard-response","530","1028121","0.0-2.0-0.88","ck","2","pretest","true","4009713","null","","",""
"null","../img/tt/318tt.jpg","","mooney1","image-keyboard-response","531","1031125","0.0-2.0-1.88","ck","2","pretest","true","4009713","null","../img/tt/318tt.jpg","",""
"1020","<p></p>","","recognized","html-keyboard-response","532","1032146","0.0-2.0-2.88","ck","2","pretest","true","4009713","78","../img/tt/318tt.jpg","n",""
"null","../img/gs/318gs.jpg","","solution","image-keyboard-response","533","1034150","0.0-2.0-3.88","ck","2","pretest","true","4009713","null","","",""
"null","../img/tt/318tt.jpg","","mooney2","image-keyboard-response","534","1036153","0.0-2.0-4.88","ck","2","pretest","true","4009713","null","","",""
"479","<p>How strong was your <strong>aha-experience</strong>?</p>","","aha","html-keyboard-response","535","1036634","0.0-2.0-5.88","ck","2","pretest","true","4009713","51","../img/tt/318tt.jpg","","3"
"null","<div style=""font-size:60px;""> </div>","","fixation","html-keyboard-response","536","1036836","0.0-2.0-0.89","ck","2","pretest","true","4009713","null","","",""
"null","../img/tt/537tt.jpg","","mooney1","image-keyboard-response","537","1039840","0.0-2.0-1.89","ck","2","pretest","true","4009713","null","../img/tt/537tt.jpg","",""
"466","<p></p>","","recognized","html-keyboard-response","538","1040307","0.0-2.0-2.89","ck","2","pretest","true","4009713","78","../img/tt/537tt.jpg","n",""
"null","../img/gs/537gs.jpg","","solution","image-keyboard-response","539","1042311","0.0-2.0-3.89","ck","2","pretest","true","4009713","null","","",""
"null","../img/tt/537tt.jpg","","mooney2","image-keyboard-response","540","1044314","0.0-2.0-4.89","ck","2","pretest","true","4009713","null","","",""
"391","<p>How strong was your <strong>aha-experience</strong>?</p>","","aha","html-keyboard-response","541","1044705","0.0-2.0-5.89","ck","2","pretest","true","4009713","53","../img/tt/537tt.jpg","","5"
"null","<div style=""font-size:60px;""> </div>","","fixation","html-keyboard-response","542","1044907","0.0-2.0-0.90","ck","2","pretest","true","4009713","null","","",""
"null","../img/tt/1366tt.jpg","","mooney1","image-keyboard-response","543","1047911","0.0-2.0-1.90","ck","2","pretest","true","4009713","null","../img/tt/1366tt.jpg","",""
"443","<p></p>","","recognized","html-keyboard-response","544","1048355","0.0-2.0-2.90","ck","2","pretest","true","4009713","78","../img/tt/1366tt.jpg","n",""
"null","../img/gs/1366gs.jpg","","solution","image-keyboard-response","545","1050358","0.0-2.0-3.90","ck","2","pretest","true","4009713","null","","",""
"null","../img/tt/1366tt.jpg","","mooney2","image-keyboard-response","546","1052362","0.0-2.0-4.90","ck","2","pretest","true","4009713","null","","",""
"1186","<p>How strong was your <strong>aha-experience</strong>?</p>","","aha","html-keyboard-response","547","1053549","0.0-2.0-5.90","ck","2","pretest","true","4009713","51","../img/tt/1366tt.jpg","","3"
"null","<div style=""font-size:60px;""> </div>","","fixation","html-keyboard-response","548","1053752","0.0-2.0-0.91","ck","2","pretest","true","4009713","null","","",""
"null","../img/tt/437tt.jpg","","mooney1","image-keyboard-response","549","1056756","0.0-2.0-1.91","ck","2","pretest","true","4009713","null","../img/tt/437tt.jpg","",""
"853","<p></p>","","recognized","html-keyboard-response","550","1057610","0.0-2.0-2.91","ck","2","pretest","true","4009713","78","../img/tt/437tt.jpg","n",""
"null","../img/gs/437gs.jpg","","solution","image-keyboard-response","551","1059613","0.0-2.0-3.91","ck","2","pretest","true","4009713","null","","",""
"null","../img/tt/437tt.jpg","","mooney2","image-keyboard-response","552","1061616","0.0-2.0-4.91","ck","2","pretest","true","4009713","null","","",""
"386","<p>How strong was your <strong>aha-experience</strong>?</p>","","aha","html-keyboard-response","553","1062004","0.0-2.0-5.91","ck","2","pretest","true","4009713","49","../img/tt/437tt.jpg","","1"
"null","<div style=""font-size:60px;""> </div>","","fixation","html-keyboard-response","554","1062206","0.0-2.0-0.92","ck","2","pretest","true","4009713","null","","",""
"null","../img/tt/571tt.jpg","","mooney1","image-keyboard-response","555","1065210","0.0-2.0-1.92","ck","2","pretest","true","4009713","null","../img/tt/571tt.jpg","",""
"304","<p></p>","","recognized","html-keyboard-response","556","1065514","0.0-2.0-2.92","ck","2","pretest","true","4009713","89","../img/tt/571tt.jpg","y",""
"null","../img/gs/571gs.jpg","","solution","image-keyboard-response","557","1067518","0.0-2.0-3.92","ck","2","pretest","true","4009713","null","","",""
"null","../img/tt/571tt.jpg","","mooney2","image-keyboard-response","558","1069522","0.0-2.0-4.92","ck","2","pretest","true","4009713","null","","",""
"51708","<p>How strong was your <strong>aha-experience</strong>?</p>","","aha","html-keyboard-response","559","1121230","0.0-2.0-5.92","ck","2","pretest","true","4009713","49","../img/tt/571tt.jpg","","1"
"null","<div style=""font-size:60px;""> </div>","","fixation","html-keyboard-response","560","1121432","0.0-2.0-0.93","ck","2","pretest","true","4009713","null","","",""
"null","../img/tt/1334tt.jpg","","mooney1","image-keyboard-response","561","1124436","0.0-2.0-1.93","ck","2","pretest","true","4009713","null","../img/tt/1334tt.jpg","",""
"1019","<p></p>","","recognized","html-keyboard-response","562","1125456","0.0-2.0-2.93","ck","2","pretest","true","4009713","78","../img/tt/1334tt.jpg","n",""
"null","../img/gs/1334gs.jpg","","solution","image-keyboard-response","563","1127458","0.0-2.0-3.93","ck","2","pretest","true","4009713","null","","",""
"null","../img/tt/1334tt.jpg","","mooney2","image-keyboard-response","564","1129462","0.0-2.0-4.93","ck","2","pretest","true","4009713","null","","",""
"459","<p>How strong was your <strong>aha-experience</strong>?</p>","","aha","html-keyboard-response","565","1129922","0.0-2.0-5.93","ck","2","pretest","true","4009713","52","../img/tt/1334tt.jpg","","4"
"null","<div style=""font-size:60px;""> </div>","","fixation","html-keyboard-response","566","1130124","0.0-2.0-0.94","ck","2","pretest","true","4009713","null","","",""
"null","../img/tt/241tt.jpg","","mooney1","image-keyboard-response","567","1133127","0.0-2.0-1.94","ck","2","pretest","true","4009713","null","../img/tt/241tt.jpg","",""
"930","<p></p>","","recognized","html-keyboard-response","568","1134059","0.0-2.0-2.94","ck","2","pretest","true","4009713","78","../img/tt/241tt.jpg","n",""
"null","../img/gs/241gs.jpg","","solution","image-keyboard-response","569","1136062","0.0-2.0-3.94","ck","2","pretest","true","4009713","null","","",""
"null","../img/tt/241tt.jpg","","mooney2","image-keyboard-response","570","1138065","0.0-2.0-4.94","ck","2","pretest","true","4009713","null","","",""
