"rt","stimulus","button_pressed","test_part","trial_type","trial_index","time_elapsed","internal_node_id","subject","session","experiment_name","complete","totalTime","key_press","currentStim","recognized","aha"
"137659","<div style='word-wrap: break-word; width: 900px'><h3>Please consider this information carefully before deciding whether to participate in this research</h3><ul style='text-align: left; font-size: .8em;'><li><b>Purpose of the research</b>: To examine how people process images.</li><li><b>What you will do in this research</b>:  Stimuli (images) will be presented on the computer and you will be asked different questions about them.</li><li><b>Time required</b>: Participation will take max 60 minutes to complete.</li><li><b>Risks</b>:  There are no anticipated risks associated with participating in this study. The effects of participating should be comparable to those you would experience from viewing a computer monitor for 60 minutes and using a mouse or keyboard.</li><li><b>Benefits</b>:  This study provides no benefits to you individually. The study provides important information about the nature of perception and learning.</li><li><b>Confidentiality</b>:  Your participation in this study will remain confidential. No personally identifiable information will be associated with your data. Your de-identified data may be shared with other researchers and used in future projects.</li><li><b>Participation and withdrawal</b>:  Your participation in this study is completely voluntary and you may refuse to participate or you may choose to withdraw at any time without penalty.</li><li><b>How to contact the researchers</b>: If you have questions or concerns about your participation or payment, or want to request a summary of research findings, please contact Sander Van de Cruys (KU Leuven), at sander.vandecruys@kuleuven.be.</li></ul><p>The nature and purpose of this research have been sufficiently explained and I agree to participate in this study.  I understand that I am free to withdraw at any time without incurring any penalty.</p><p>Please consent by clicking the button below to continue. Otherwise, please exit the study at this time.</p></div>","0","instructions","html-button-response","0","137660","0.0-0.0","CL","1","pretest","true","4941306","","","",""
"81030","<div style='word-wrap: break-word; width: 900px'><h3>Instructions</h3><p>In this experiment you will see a series of distorted images like the one below on the left. As you can see in the righthand image, the distorted images are derived from actual photographs.In what follows, you will <strong>briefly</strong> be presented with <strong>only</strong> the distorted image.</p> <div style='float: left; margin-right: 20px;'><img src='../img/018tt.jpg' height='250' width='250'></img></div><div style='float: right; margin-left: 20px;'><img src='../img/018gs.jpg' height='250' width='250'></img></div><p>To be useful for future research, we need to select those images that people can generally not solve on their own. Therefore we'll show you the distorted image and ask you to indicate (yes or no) whether you already recognized what was in the image. This is not a competition, so please respond truthfully. We don't ask or check your answer, we just want to know whether you think you recognized it. All images depict objects from one of these broad level categories: animals, inanimate objects, plants, sports, vehicles, and food. Recognizing means knowing more than these broad labels for a given image. It means knowing at least the basic level category of the main object in the image, for example when you see a parrot in the image, 'parrot' will obviously be a correct answer but also correct is 'bird', but not 'animal' (the broad level category). For the example above, 'rose' would be correct or 'flower', but not 'plant'. When soccer players are depicted, you don't recognize the image when you just see 'humans', 'outdoors', or 'sports'. Note that complete certainty about your answer is not necessary, it's enough to have a good, definite guess on the object, to say 'yes, I recognized it'.</p><p>One additional question will be asked after we've revealed the solution: You'll be asked to indicate how strong your <strong>aha-experience</strong> was. This describes the positive 'click' you sometimes experience, when the pieces of the 'puzzle' fall together and you suddenly have 'insight' in the image. It describes how good you felt the 'fit' was between the distorted image and the solution.</p><p>Press any key to start.</p></div>","","instructions","html-keyboard-response","1","218691","0.0-1.0","CL","1","pretest","true","4941306","32","","",""
"null","<div style=""font-size:60px;""> </div>","","fixation","html-keyboard-response","2","218895","0.0-2.0-0.0","CL","1","pretest","true","4941306","null","","",""
"null","../img/tt/1103tt.jpg","","mooney1","image-keyboard-response","3","221902","0.0-2.0-1.0","CL","1","pretest","true","4941306","null","../img/tt/1103tt.jpg","",""
"3270","<p></p>","","recognized","html-keyboard-response","4","225173","0.0-2.0-2.0","CL","1","pretest","true","4941306","89","../img/tt/1103tt.jpg","y",""
"null","../img/gs/1103gs.jpg","","solution","image-keyboard-response","5","227178","0.0-2.0-3.0","CL","1","pretest","true","4941306","null","","",""
"null","../img/tt/1103tt.jpg","","mooney2","image-keyboard-response","6","229183","0.0-2.0-4.0","CL","1","pretest","true","4941306","null","","",""
"9511","<p>How strong was your <strong>aha-experience</strong>?</p>","","aha","html-keyboard-response","7","238695","0.0-2.0-5.0","CL","1","pretest","true","4941306","53","../img/tt/1103tt.jpg","","5"
"null","<div style=""font-size:60px;""> </div>","","fixation","html-keyboard-response","8","238899","0.0-2.0-0.1","CL","1","pretest","true","4941306","null","","",""
"null","../img/tt/082tt.jpg","","mooney1","image-keyboard-response","9","241906","0.0-2.0-1.1","CL","1","pretest","true","4941306","null","../img/tt/082tt.jpg","",""
"1361","<p></p>","","recognized","html-keyboard-response","10","243267","0.0-2.0-2.1","CL","1","pretest","true","4941306","78","../img/tt/082tt.jpg","n",""
"null","../img/gs/082gs.jpg","","solution","image-keyboard-response","11","245270","0.0-2.0-3.1","CL","1","pretest","true","4941306","null","","",""
"null","../img/tt/082tt.jpg","","mooney2","image-keyboard-response","12","247273","0.0-2.0-4.1","CL","1","pretest","true","4941306","null","","",""
"1103","<p>How strong was your <strong>aha-experience</strong>?</p>","","aha","html-keyboard-response","13","248377","0.0-2.0-5.1","CL","1","pretest","true","4941306","52","../img/tt/082tt.jpg","","4"
"null","<div style=""font-size:60px;""> </div>","","fixation","html-keyboard-response","14","248580","0.0-2.0-0.2","CL","1","pretest","true","4941306","null","","",""
"null","../img/tt/096tt.jpg","","mooney1","image-keyboard-response","15","251585","0.0-2.0-1.2","CL","1","pretest","true","4941306","null","../img/tt/096tt.jpg","",""
"470","<p></p>","","recognized","html-keyboard-response","16","252056","0.0-2.0-2.2","CL","1","pretest","true","4941306","89","../img/tt/096tt.jpg","y",""
"null","../img/gs/096gs.jpg","","solution","image-keyboard-response","17","254060","0.0-2.0-3.2","CL","1","pretest","true","4941306","null","","",""
"null","../img/tt/096tt.jpg","","mooney2","image-keyboard-response","18","256066","0.0-2.0-4.2","CL","1","pretest","true","4941306","null","","",""
"1020","<p>How strong was your <strong>aha-experience</strong>?</p>","","aha","html-keyboard-response","19","257086","0.0-2.0-5.2","CL","1","pretest","true","4941306","49","../img/tt/096tt.jpg","","1"
"null","<div style=""font-size:60px;""> </div>","","fixation","html-keyboard-response","20","257291","0.0-2.0-0.3","CL","1","pretest","true","4941306","null","","",""
"null","../img/tt/1160tt.jpg","","mooney1","image-keyboard-response","21","260292","0.0-2.0-1.3","CL","1","pretest","true","4941306","null","../img/tt/1160tt.jpg","",""
"1015","<p></p>","","recognized","html-keyboard-response","22","261308","0.0-2.0-2.3","CL","1","pretest","true","4941306","89","../img/tt/1160tt.jpg","y",""
"null","../img/gs/1160gs.jpg","","solution","image-keyboard-response","23","263312","0.0-2.0-3.3","CL","1","pretest","true","4941306","null","","",""
"null","../img/tt/1160tt.jpg","","mooney2","image-keyboard-response","24","265318","0.0-2.0-4.3","CL","1","pretest","true","4941306","null","","",""
"3235","<p>How strong was your <strong>aha-experience</strong>?</p>","","aha","html-keyboard-response","25","268553","0.0-2.0-5.3","CL","1","pretest","true","4941306","49","../img/tt/1160tt.jpg","","1"
"null","<div style=""font-size:60px;""> </div>","","fixation","html-keyboard-response","26","268756","0.0-2.0-0.4","CL","1","pretest","true","4941306","null","","",""
"null","../img/tt/1014tt.jpg","","mooney1","image-keyboard-response","27","271760","0.0-2.0-1.4","CL","1","pretest","true","4941306","null","../img/tt/1014tt.jpg","",""
"1194","<p></p>","","recognized","html-keyboard-response","28","272955","0.0-2.0-2.4","CL","1","pretest","true","4941306","89","../img/tt/1014tt.jpg","y",""
"null","../img/gs/1014gs.jpg","","solution","image-keyboard-response","29","274959","0.0-2.0-3.4","CL","1","pretest","true","4941306","null","","",""
"null","../img/tt/1014tt.jpg","","mooney2","image-keyboard-response","30","276962","0.0-2.0-4.4","CL","1","pretest","true","4941306","null","","",""
"2329","<p>How strong was your <strong>aha-experience</strong>?</p>","","aha","html-keyboard-response","31","279292","0.0-2.0-5.4","CL","1","pretest","true","4941306","51","../img/tt/1014tt.jpg","","3"
"null","<div style=""font-size:60px;""> </div>","","fixation","html-keyboard-response","32","279496","0.0-2.0-0.5","CL","1","pretest","true","4941306","null","","",""
"null","../img/tt/1102tt.jpg","","mooney1","image-keyboard-response","33","282498","0.0-2.0-1.5","CL","1","pretest","true","4941306","null","../img/tt/1102tt.jpg","",""
"614","<p></p>","","recognized","html-keyboard-response","34","283113","0.0-2.0-2.5","CL","1","pretest","true","4941306","78","../img/tt/1102tt.jpg","n",""
"null","../img/gs/1102gs.jpg","","solution","image-keyboard-response","35","285117","0.0-2.0-3.5","CL","1","pretest","true","4941306","null","","",""
"null","../img/tt/1102tt.jpg","","mooney2","image-keyboard-response","36","287119","0.0-2.0-4.5","CL","1","pretest","true","4941306","null","","",""
"1614","<p>How strong was your <strong>aha-experience</strong>?</p>","","aha","html-keyboard-response","37","288733","0.0-2.0-5.5","CL","1","pretest","true","4941306","51","../img/tt/1102tt.jpg","","3"
"null","<div style=""font-size:60px;""> </div>","","fixation","html-keyboard-response","38","288937","0.0-2.0-0.6","CL","1","pretest","true","4941306","null","","",""
"null","../img/tt/1010tt.jpg","","mooney1","image-keyboard-response","39","291940","0.0-2.0-1.6","CL","1","pretest","true","4941306","null","../img/tt/1010tt.jpg","",""
"1006","<p></p>","","recognized","html-keyboard-response","40","292947","0.0-2.0-2.6","CL","1","pretest","true","4941306","89","../img/tt/1010tt.jpg","y",""
"null","../img/gs/1010gs.jpg","","solution","image-keyboard-response","41","294951","0.0-2.0-3.6","CL","1","pretest","true","4941306","null","","",""
"null","../img/tt/1010tt.jpg","","mooney2","image-keyboard-response","42","296954","0.0-2.0-4.6","CL","1","pretest","true","4941306","null","","",""
"1238","<p>How strong was your <strong>aha-experience</strong>?</p>","","aha","html-keyboard-response","43","298193","0.0-2.0-5.6","CL","1","pretest","true","4941306","50","../img/tt/1010tt.jpg","","2"
"null","<div style=""font-size:60px;""> </div>","","fixation","html-keyboard-response","44","298395","0.0-2.0-0.7","CL","1","pretest","true","4941306","null","","",""
"null","../img/tt/1129tt.jpg","","mooney1","image-keyboard-response","45","301402","0.0-2.0-1.7","CL","1","pretest","true","4941306","null","../img/tt/1129tt.jpg","",""
"2284","<p></p>","","recognized","html-keyboard-response","46","303687","0.0-2.0-2.7","CL","1","pretest","true","4941306","78","../img/tt/1129tt.jpg","n",""
"null","../img/gs/1129gs.jpg","","solution","image-keyboard-response","47","305691","0.0-2.0-3.7","CL","1","pretest","true","4941306","null","","",""
"null","../img/tt/1129tt.jpg","","mooney2","image-keyboard-response","48","307697","0.0-2.0-4.7","CL","1","pretest","true","4941306","null","","",""
"1376","<p>How strong was your <strong>aha-experience</strong>?</p>","","aha","html-keyboard-response","49","309074","0.0-2.0-5.7","CL","1","pretest","true","4941306","51","../img/tt/1129tt.jpg","","3"
"null","<div style=""font-size:60px;""> </div>","","fixation","html-keyboard-response","50","309279","0.0-2.0-0.8","CL","1","pretest","true","4941306","null","","",""
"null","../img/tt/1291tt.jpg","","mooney1","image-keyboard-response","51","312280","0.0-2.0-1.8","CL","1","pretest","true","4941306","null","../img/tt/1291tt.jpg","",""
"991","<p></p>","","recognized","html-keyboard-response","52","313273","0.0-2.0-2.8","CL","1","pretest","true","4941306","78","../img/tt/1291tt.jpg","n",""
"null","../img/gs/1291gs.jpg","","solution","image-keyboard-response","53","315278","0.0-2.0-3.8","CL","1","pretest","true","4941306","null","","",""
"null","../img/tt/1291tt.jpg","","mooney2","image-keyboard-response","54","317282","0.0-2.0-4.8","CL","1","pretest","true","4941306","null","","",""
"1279","<p>How strong was your <strong>aha-experience</strong>?</p>","","aha","html-keyboard-response","55","318561","0.0-2.0-5.8","CL","1","pretest","true","4941306","50","../img/tt/1291tt.jpg","","2"
"null","<div style=""font-size:60px;""> </div>","","fixation","html-keyboard-response","56","318762","0.0-2.0-0.9","CL","1","pretest","true","4941306","null","","",""
"null","../img/tt/1068tt.jpg","","mooney1","image-keyboard-response","57","321765","0.0-2.0-1.9","CL","1","pretest","true","4941306","null","../img/tt/1068tt.jpg","",""
"1173","<p></p>","","recognized","html-keyboard-response","58","322938","0.0-2.0-2.9","CL","1","pretest","true","4941306","89","../img/tt/1068tt.jpg","y",""
"null","../img/gs/1068gs.jpg","","solution","image-keyboard-response","59","324942","0.0-2.0-3.9","CL","1","pretest","true","4941306","null","","",""
"null","../img/tt/1068tt.jpg","","mooney2","image-keyboard-response","60","326944","0.0-2.0-4.9","CL","1","pretest","true","4941306","null","","",""
"639","<p>How strong was your <strong>aha-experience</strong>?</p>","","aha","html-keyboard-response","61","327584","0.0-2.0-5.9","CL","1","pretest","true","4941306","49","../img/tt/1068tt.jpg","","1"
"null","<div style=""font-size:60px;""> </div>","","fixation","html-keyboard-response","62","327787","0.0-2.0-0.10","CL","1","pretest","true","4941306","null","","",""
"null","../img/tt/1276tt.jpg","","mooney1","image-keyboard-response","63","330791","0.0-2.0-1.10","CL","1","pretest","true","4941306","null","../img/tt/1276tt.jpg","",""
"947","<p></p>","","recognized","html-keyboard-response","64","331739","0.0-2.0-2.10","CL","1","pretest","true","4941306","78","../img/tt/1276tt.jpg","n",""
"null","../img/gs/1276gs.jpg","","solution","image-keyboard-response","65","333744","0.0-2.0-3.10","CL","1","pretest","true","4941306","null","","",""
"null","../img/tt/1276tt.jpg","","mooney2","image-keyboard-response","66","335746","0.0-2.0-4.10","CL","1","pretest","true","4941306","null","","",""
"1435","<p>How strong was your <strong>aha-experience</strong>?</p>","","aha","html-keyboard-response","67","337181","0.0-2.0-5.10","CL","1","pretest","true","4941306","52","../img/tt/1276tt.jpg","","4"
"null","<div style=""font-size:60px;""> </div>","","fixation","html-keyboard-response","68","337385","0.0-2.0-0.11","CL","1","pretest","true","4941306","null","","",""
"null","../img/tt/086tt.jpg","","mooney1","image-keyboard-response","69","340396","0.0-2.0-1.11","CL","1","pretest","true","4941306","null","../img/tt/086tt.jpg","",""
"582","<p></p>","","recognized","html-keyboard-response","70","340978","0.0-2.0-2.11","CL","1","pretest","true","4941306","78","../img/tt/086tt.jpg","n",""
"null","../img/gs/086gs.jpg","","solution","image-keyboard-response","71","342983","0.0-2.0-3.11","CL","1","pretest","true","4941306","null","","",""
"null","../img/tt/086tt.jpg","","mooney2","image-keyboard-response","72","344984","0.0-2.0-4.11","CL","1","pretest","true","4941306","null","","",""
"6234","<p>How strong was your <strong>aha-experience</strong>?</p>","","aha","html-keyboard-response","73","351219","0.0-2.0-5.11","CL","1","pretest","true","4941306","51","../img/tt/086tt.jpg","","3"
"null","<div style=""font-size:60px;""> </div>","","fixation","html-keyboard-response","74","351423","0.0-2.0-0.12","CL","1","pretest","true","4941306","null","","",""
"null","../img/tt/1240tt.jpg","","mooney1","image-keyboard-response","75","354430","0.0-2.0-1.12","CL","1","pretest","true","4941306","null","../img/tt/1240tt.jpg","",""
"415","<p></p>","","recognized","html-keyboard-response","76","354846","0.0-2.0-2.12","CL","1","pretest","true","4941306","89","../img/tt/1240tt.jpg","y",""
"null","../img/gs/1240gs.jpg","","solution","image-keyboard-response","77","356847","0.0-2.0-3.12","CL","1","pretest","true","4941306","null","","",""
"null","../img/tt/1240tt.jpg","","mooney2","image-keyboard-response","78","358852","0.0-2.0-4.12","CL","1","pretest","true","4941306","null","","",""
"5574","<p>How strong was your <strong>aha-experience</strong>?</p>","","aha","html-keyboard-response","79","364427","0.0-2.0-5.12","CL","1","pretest","true","4941306","50","../img/tt/1240tt.jpg","","2"
"null","<div style=""font-size:60px;""> </div>","","fixation","html-keyboard-response","80","364632","0.0-2.0-0.13","CL","1","pretest","true","4941306","null","","",""
"null","../img/tt/1032tt.jpg","","mooney1","image-keyboard-response","81","367636","0.0-2.0-1.13","CL","1","pretest","true","4941306","null","../img/tt/1032tt.jpg","",""
"864","<p></p>","","recognized","html-keyboard-response","82","368501","0.0-2.0-2.13","CL","1","pretest","true","4941306","78","../img/tt/1032tt.jpg","n",""
"null","../img/gs/1032gs.jpg","","solution","image-keyboard-response","83","370502","0.0-2.0-3.13","CL","1","pretest","true","4941306","null","","",""
"null","../img/tt/1032tt.jpg","","mooney2","image-keyboard-response","84","372508","0.0-2.0-4.13","CL","1","pretest","true","4941306","null","","",""
"7693","<p>How strong was your <strong>aha-experience</strong>?</p>","","aha","html-keyboard-response","85","380201","0.0-2.0-5.13","CL","1","pretest","true","4941306","51","../img/tt/1032tt.jpg","","3"
"null","<div style=""font-size:60px;""> </div>","","fixation","html-keyboard-response","86","380402","0.0-2.0-0.14","CL","1","pretest","true","4941306","null","","",""
"null","../img/tt/1059tt.jpg","","mooney1","image-keyboard-response","87","383405","0.0-2.0-1.14","CL","1","pretest","true","4941306","null","../img/tt/1059tt.jpg","",""
"1535","<p></p>","","recognized","html-keyboard-response","88","384940","0.0-2.0-2.14","CL","1","pretest","true","4941306","89","../img/tt/1059tt.jpg","y",""
"null","../img/gs/1059gs.jpg","","solution","image-keyboard-response","89","386947","0.0-2.0-3.14","CL","1","pretest","true","4941306","null","","",""
"null","../img/tt/1059tt.jpg","","mooney2","image-keyboard-response","90","388953","0.0-2.0-4.14","CL","1","pretest","true","4941306","null","","",""
"365","<p>How strong was your <strong>aha-experience</strong>?</p>","","aha","html-keyboard-response","91","389319","0.0-2.0-5.14","CL","1","pretest","true","4941306","51","../img/tt/1059tt.jpg","","3"
"null","<div style=""font-size:60px;""> </div>","","fixation","html-keyboard-response","92","389522","0.0-2.0-0.15","CL","1","pretest","true","4941306","null","","",""
"null","../img/tt/1232tt.jpg","","mooney1","image-keyboard-response","93","392524","0.0-2.0-1.15","CL","1","pretest","true","4941306","null","../img/tt/1232tt.jpg","",""
"1528","<p></p>","","recognized","html-keyboard-response","94","394052","0.0-2.0-2.15","CL","1","pretest","true","4941306","78","../img/tt/1232tt.jpg","n",""
"null","../img/gs/1232gs.jpg","","solution","image-keyboard-response","95","396054","0.0-2.0-3.15","CL","1","pretest","true","4941306","null","","",""
"null","../img/tt/1232tt.jpg","","mooney2","image-keyboard-response","96","398056","0.0-2.0-4.15","CL","1","pretest","true","4941306","null","","",""
"1626","<p>How strong was your <strong>aha-experience</strong>?</p>","","aha","html-keyboard-response","97","399682","0.0-2.0-5.15","CL","1","pretest","true","4941306","54","../img/tt/1232tt.jpg","","6"
"null","<div style=""font-size:60px;""> </div>","","fixation","html-keyboard-response","98","399886","0.0-2.0-0.16","CL","1","pretest","true","4941306","null","","",""
"null","../img/tt/078tt.jpg","","mooney1","image-keyboard-response","99","402891","0.0-2.0-1.16","CL","1","pretest","true","4941306","null","../img/tt/078tt.jpg","",""
"873","<p></p>","","recognized","html-keyboard-response","100","403764","0.0-2.0-2.16","CL","1","pretest","true","4941306","89","../img/tt/078tt.jpg","y",""
"null","../img/gs/078gs.jpg","","solution","image-keyboard-response","101","405769","0.0-2.0-3.16","CL","1","pretest","true","4941306","null","","",""
"null","../img/tt/078tt.jpg","","mooney2","image-keyboard-response","102","407771","0.0-2.0-4.16","CL","1","pretest","true","4941306","null","","",""
"499","<p>How strong was your <strong>aha-experience</strong>?</p>","","aha","html-keyboard-response","103","408271","0.0-2.0-5.16","CL","1","pretest","true","4941306","51","../img/tt/078tt.jpg","","3"
"null","<div style=""font-size:60px;""> </div>","","fixation","html-keyboard-response","104","408476","0.0-2.0-0.17","CL","1","pretest","true","4941306","null","","",""
"null","../img/tt/1111tt.jpg","","mooney1","image-keyboard-response","105","411478","0.0-2.0-1.17","CL","1","pretest","true","4941306","null","../img/tt/1111tt.jpg","",""
"1766","<p></p>","","recognized","html-keyboard-response","106","413245","0.0-2.0-2.17","CL","1","pretest","true","4941306","89","../img/tt/1111tt.jpg","y",""
"null","../img/gs/1111gs.jpg","","solution","image-keyboard-response","107","415247","0.0-2.0-3.17","CL","1","pretest","true","4941306","null","","",""
"null","../img/tt/1111tt.jpg","","mooney2","image-keyboard-response","108","417250","0.0-2.0-4.17","CL","1","pretest","true","4941306","null","","",""
"5999","<p>How strong was your <strong>aha-experience</strong>?</p>","","aha","html-keyboard-response","109","423250","0.0-2.0-5.17","CL","1","pretest","true","4941306","49","../img/tt/1111tt.jpg","","1"
"null","<div style=""font-size:60px;""> </div>","","fixation","html-keyboard-response","110","423451","0.0-2.0-0.18","CL","1","pretest","true","4941306","null","","",""
"null","../img/tt/1123tt.jpg","","mooney1","image-keyboard-response","111","426454","0.0-2.0-1.18","CL","1","pretest","true","4941306","null","../img/tt/1123tt.jpg","",""
"421","<p></p>","","recognized","html-keyboard-response","112","426875","0.0-2.0-2.18","CL","1","pretest","true","4941306","89","../img/tt/1123tt.jpg","y",""
"null","../img/gs/1123gs.jpg","","solution","image-keyboard-response","113","428878","0.0-2.0-3.18","CL","1","pretest","true","4941306","null","","",""
"null","../img/tt/1123tt.jpg","","mooney2","image-keyboard-response","114","430880","0.0-2.0-4.18","CL","1","pretest","true","4941306","null","","",""
"1361","<p>How strong was your <strong>aha-experience</strong>?</p>","","aha","html-keyboard-response","115","432242","0.0-2.0-5.18","CL","1","pretest","true","4941306","51","../img/tt/1123tt.jpg","","3"
"null","<div style=""font-size:60px;""> </div>","","fixation","html-keyboard-response","116","432446","0.0-2.0-0.19","CL","1","pretest","true","4941306","null","","",""
"null","../img/tt/1272tt.jpg","","mooney1","image-keyboard-response","117","435450","0.0-2.0-1.19","CL","1","pretest","true","4941306","null","../img/tt/1272tt.jpg","",""
"1003","<p></p>","","recognized","html-keyboard-response","118","436453","0.0-2.0-2.19","CL","1","pretest","true","4941306","78","../img/tt/1272tt.jpg","n",""
"null","../img/gs/1272gs.jpg","","solution","image-keyboard-response","119","438458","0.0-2.0-3.19","CL","1","pretest","true","4941306","null","","",""
"null","../img/tt/1272tt.jpg","","mooney2","image-keyboard-response","120","440463","0.0-2.0-4.19","CL","1","pretest","true","4941306","null","","",""
"952","<p>How strong was your <strong>aha-experience</strong>?</p>","","aha","html-keyboard-response","121","441416","0.0-2.0-5.19","CL","1","pretest","true","4941306","54","../img/tt/1272tt.jpg","","6"
"null","<div style=""font-size:60px;""> </div>","","fixation","html-keyboard-response","122","441621","0.0-2.0-0.20","CL","1","pretest","true","4941306","null","","",""
"null","../img/tt/1175tt.jpg","","mooney1","image-keyboard-response","123","444623","0.0-2.0-1.20","CL","1","pretest","true","4941306","null","../img/tt/1175tt.jpg","",""
"658","<p></p>","","recognized","html-keyboard-response","124","445282","0.0-2.0-2.20","CL","1","pretest","true","4941306","78","../img/tt/1175tt.jpg","n",""
"null","../img/gs/1175gs.jpg","","solution","image-keyboard-response","125","447285","0.0-2.0-3.20","CL","1","pretest","true","4941306","null","","",""
"null","../img/tt/1175tt.jpg","","mooney2","image-keyboard-response","126","449290","0.0-2.0-4.20","CL","1","pretest","true","4941306","null","","",""
"1246","<p>How strong was your <strong>aha-experience</strong>?</p>","","aha","html-keyboard-response","127","450537","0.0-2.0-5.20","CL","1","pretest","true","4941306","54","../img/tt/1175tt.jpg","","6"
"null","<div style=""font-size:60px;""> </div>","","fixation","html-keyboard-response","128","450738","0.0-2.0-0.21","CL","1","pretest","true","4941306","null","","",""
"null","../img/tt/100tt.jpg","","mooney1","image-keyboard-response","129","453740","0.0-2.0-1.21","CL","1","pretest","true","4941306","null","../img/tt/100tt.jpg","",""
"939","<p></p>","","recognized","html-keyboard-response","130","454679","0.0-2.0-2.21","CL","1","pretest","true","4941306","89","../img/tt/100tt.jpg","y",""
"null","../img/gs/100gs.jpg","","solution","image-keyboard-response","131","456683","0.0-2.0-3.21","CL","1","pretest","true","4941306","null","","",""
"null","../img/tt/100tt.jpg","","mooney2","image-keyboard-response","132","458689","0.0-2.0-4.21","CL","1","pretest","true","4941306","null","","",""
"3814","<p>How strong was your <strong>aha-experience</strong>?</p>","","aha","html-keyboard-response","133","462504","0.0-2.0-5.21","CL","1","pretest","true","4941306","51","../img/tt/100tt.jpg","","3"
"null","<div style=""font-size:60px;""> </div>","","fixation","html-keyboard-response","134","462709","0.0-2.0-0.22","CL","1","pretest","true","4941306","null","","",""
"null","../img/tt/106tt.jpg","","mooney1","image-keyboard-response","135","465715","0.0-2.0-1.22","CL","1","pretest","true","4941306","null","../img/tt/106tt.jpg","",""
"488","<p></p>","","recognized","html-keyboard-response","136","466203","0.0-2.0-2.22","CL","1","pretest","true","4941306","89","../img/tt/106tt.jpg","y",""
"null","../img/gs/106gs.jpg","","solution","image-keyboard-response","137","468210","0.0-2.0-3.22","CL","1","pretest","true","4941306","null","","",""
"null","../img/tt/106tt.jpg","","mooney2","image-keyboard-response","138","470212","0.0-2.0-4.22","CL","1","pretest","true","4941306","null","","",""
"2506","<p>How strong was your <strong>aha-experience</strong>?</p>","","aha","html-keyboard-response","139","472718","0.0-2.0-5.22","CL","1","pretest","true","4941306","51","../img/tt/106tt.jpg","","3"
"null","<div style=""font-size:60px;""> </div>","","fixation","html-keyboard-response","140","472923","0.0-2.0-0.23","CL","1","pretest","true","4941306","null","","",""
"null","../img/tt/1191tt.jpg","","mooney1","image-keyboard-response","141","475927","0.0-2.0-1.23","CL","1","pretest","true","4941306","null","../img/tt/1191tt.jpg","",""
"1030","<p></p>","","recognized","html-keyboard-response","142","476958","0.0-2.0-2.23","CL","1","pretest","true","4941306","89","../img/tt/1191tt.jpg","y",""
"null","../img/gs/1191gs.jpg","","solution","image-keyboard-response","143","478962","0.0-2.0-3.23","CL","1","pretest","true","4941306","null","","",""
"null","../img/tt/1191tt.jpg","","mooney2","image-keyboard-response","144","480967","0.0-2.0-4.23","CL","1","pretest","true","4941306","null","","",""
"403","<p>How strong was your <strong>aha-experience</strong>?</p>","","aha","html-keyboard-response","145","481370","0.0-2.0-5.23","CL","1","pretest","true","4941306","51","../img/tt/1191tt.jpg","","3"
"null","<div style=""font-size:60px;""> </div>","","fixation","html-keyboard-response","146","481576","0.0-2.0-0.24","CL","1","pretest","true","4941306","null","","",""
"null","../img/tt/1119tt.jpg","","mooney1","image-keyboard-response","147","484579","0.0-2.0-1.24","CL","1","pretest","true","4941306","null","../img/tt/1119tt.jpg","",""
"534","<p></p>","","recognized","html-keyboard-response","148","485114","0.0-2.0-2.24","CL","1","pretest","true","4941306","89","../img/tt/1119tt.jpg","y",""
"null","../img/gs/1119gs.jpg","","solution","image-keyboard-response","149","487118","0.0-2.0-3.24","CL","1","pretest","true","4941306","null","","",""
"null","../img/tt/1119tt.jpg","","mooney2","image-keyboard-response","150","489121","0.0-2.0-4.24","CL","1","pretest","true","4941306","null","","",""
"1296","<p>How strong was your <strong>aha-experience</strong>?</p>","","aha","html-keyboard-response","151","490418","0.0-2.0-5.24","CL","1","pretest","true","4941306","49","../img/tt/1119tt.jpg","","1"
"null","<div style=""font-size:60px;""> </div>","","fixation","html-keyboard-response","152","490623","0.0-2.0-0.25","CL","1","pretest","true","4941306","null","","",""
"null","../img/tt/1054tt.jpg","","mooney1","image-keyboard-response","153","493629","0.0-2.0-1.25","CL","1","pretest","true","4941306","null","../img/tt/1054tt.jpg","",""
"1203","<p></p>","","recognized","html-keyboard-response","154","494833","0.0-2.0-2.25","CL","1","pretest","true","4941306","89","../img/tt/1054tt.jpg","y",""
"null","../img/gs/1054gs.jpg","","solution","image-keyboard-response","155","496837","0.0-2.0-3.25","CL","1","pretest","true","4941306","null","","",""
"null","../img/tt/1054tt.jpg","","mooney2","image-keyboard-response","156","498841","0.0-2.0-4.25","CL","1","pretest","true","4941306","null","","",""
"1388","<p>How strong was your <strong>aha-experience</strong>?</p>","","aha","html-keyboard-response","157","500230","0.0-2.0-5.25","CL","1","pretest","true","4941306","50","../img/tt/1054tt.jpg","","2"
"null","<div style=""font-size:60px;""> </div>","","fixation","html-keyboard-response","158","500430","0.0-2.0-0.26","CL","1","pretest","true","4941306","null","","",""
"null","../img/tt/1238tt.jpg","","mooney1","image-keyboard-response","159","503437","0.0-2.0-1.26","CL","1","pretest","true","4941306","null","../img/tt/1238tt.jpg","",""
"1130","<p></p>","","recognized","html-keyboard-response","160","504568","0.0-2.0-2.26","CL","1","pretest","true","4941306","78","../img/tt/1238tt.jpg","n",""
"null","../img/gs/1238gs.jpg","","solution","image-keyboard-response","161","506570","0.0-2.0-3.26","CL","1","pretest","true","4941306","null","","",""
"null","../img/tt/1238tt.jpg","","mooney2","image-keyboard-response","162","508572","0.0-2.0-4.26","CL","1","pretest","true","4941306","null","","",""
"1548","<p>How strong was your <strong>aha-experience</strong>?</p>","","aha","html-keyboard-response","163","510121","0.0-2.0-5.26","CL","1","pretest","true","4941306","50","../img/tt/1238tt.jpg","","2"
"null","<div style=""font-size:60px;""> </div>","","fixation","html-keyboard-response","164","510323","0.0-2.0-0.27","CL","1","pretest","true","4941306","null","","",""
"null","../img/tt/124tt.jpg","","mooney1","image-keyboard-response","165","513327","0.0-2.0-1.27","CL","1","pretest","true","4941306","null","../img/tt/124tt.jpg","",""
"1689","<p></p>","","recognized","html-keyboard-response","166","515017","0.0-2.0-2.27","CL","1","pretest","true","4941306","78","../img/tt/124tt.jpg","n",""
"null","../img/gs/124gs.jpg","","solution","image-keyboard-response","167","517019","0.0-2.0-3.27","CL","1","pretest","true","4941306","null","","",""
"null","../img/tt/124tt.jpg","","mooney2","image-keyboard-response","168","519023","0.0-2.0-4.27","CL","1","pretest","true","4941306","null","","",""
"1430","<p>How strong was your <strong>aha-experience</strong>?</p>","","aha","html-keyboard-response","169","520454","0.0-2.0-5.27","CL","1","pretest","true","4941306","52","../img/tt/124tt.jpg","","4"
"null","<div style=""font-size:60px;""> </div>","","fixation","html-keyboard-response","170","520655","0.0-2.0-0.28","CL","1","pretest","true","4941306","null","","",""
"null","../img/tt/1097tt.jpg","","mooney1","image-keyboard-response","171","523658","0.0-2.0-1.28","CL","1","pretest","true","4941306","null","../img/tt/1097tt.jpg","",""
"1145","<p></p>","","recognized","html-keyboard-response","172","524803","0.0-2.0-2.28","CL","1","pretest","true","4941306","78","../img/tt/1097tt.jpg","n",""
"null","../img/gs/1097gs.jpg","","solution","image-keyboard-response","173","526809","0.0-2.0-3.28","CL","1","pretest","true","4941306","null","","",""
"null","../img/tt/1097tt.jpg","","mooney2","image-keyboard-response","174","528815","0.0-2.0-4.28","CL","1","pretest","true","4941306","null","","",""
"1732","<p>How strong was your <strong>aha-experience</strong>?</p>","","aha","html-keyboard-response","175","530547","0.0-2.0-5.28","CL","1","pretest","true","4941306","53","../img/tt/1097tt.jpg","","5"
"null","<div style=""font-size:60px;""> </div>","","fixation","html-keyboard-response","176","530749","0.0-2.0-0.29","CL","1","pretest","true","4941306","null","","",""
"null","../img/tt/1179tt.jpg","","mooney1","image-keyboard-response","177","533755","0.0-2.0-1.29","CL","1","pretest","true","4941306","null","../img/tt/1179tt.jpg","",""
"1074","<p></p>","","recognized","html-keyboard-response","178","534830","0.0-2.0-2.29","CL","1","pretest","true","4941306","89","../img/tt/1179tt.jpg","y",""
"null","../img/gs/1179gs.jpg","","solution","image-keyboard-response","179","536833","0.0-2.0-3.29","CL","1","pretest","true","4941306","null","","",""
"null","../img/tt/1179tt.jpg","","mooney2","image-keyboard-response","180","538836","0.0-2.0-4.29","CL","1","pretest","true","4941306","null","","",""
"716","<p>How strong was your <strong>aha-experience</strong>?</p>","","aha","html-keyboard-response","181","539552","0.0-2.0-5.29","CL","1","pretest","true","4941306","50","../img/tt/1179tt.jpg","","2"
"null","<div style=""font-size:60px;""> </div>","","fixation","html-keyboard-response","182","539753","0.0-2.0-0.30","CL","1","pretest","true","4941306","null","","",""
"null","../img/tt/1227tt.jpg","","mooney1","image-keyboard-response","183","542754","0.0-2.0-1.30","CL","1","pretest","true","4941306","null","../img/tt/1227tt.jpg","",""
"730","<p></p>","","recognized","html-keyboard-response","184","543485","0.0-2.0-2.30","CL","1","pretest","true","4941306","78","../img/tt/1227tt.jpg","n",""
"null","../img/gs/1227gs.jpg","","solution","image-keyboard-response","185","545491","0.0-2.0-3.30","CL","1","pretest","true","4941306","null","","",""
"null","../img/tt/1227tt.jpg","","mooney2","image-keyboard-response","186","547492","0.0-2.0-4.30","CL","1","pretest","true","4941306","null","","",""
"1507","<p>How strong was your <strong>aha-experience</strong>?</p>","","aha","html-keyboard-response","187","549000","0.0-2.0-5.30","CL","1","pretest","true","4941306","52","../img/tt/1227tt.jpg","","4"
"null","<div style=""font-size:60px;""> </div>","","fixation","html-keyboard-response","188","549203","0.0-2.0-0.31","CL","1","pretest","true","4941306","null","","",""
"null","../img/tt/1209tt.jpg","","mooney1","image-keyboard-response","189","552208","0.0-2.0-1.31","CL","1","pretest","true","4941306","null","../img/tt/1209tt.jpg","",""
"502","<p></p>","","recognized","html-keyboard-response","190","552711","0.0-2.0-2.31","CL","1","pretest","true","4941306","89","../img/tt/1209tt.jpg","y",""
"null","../img/gs/1209gs.jpg","","solution","image-keyboard-response","191","554717","0.0-2.0-3.31","CL","1","pretest","true","4941306","null","","",""
"null","../img/tt/1209tt.jpg","","mooney2","image-keyboard-response","192","556720","0.0-2.0-4.31","CL","1","pretest","true","4941306","null","","",""
"2198","<p>How strong was your <strong>aha-experience</strong>?</p>","","aha","html-keyboard-response","193","558919","0.0-2.0-5.31","CL","1","pretest","true","4941306","50","../img/tt/1209tt.jpg","","2"
"null","<div style=""font-size:60px;""> </div>","","fixation","html-keyboard-response","194","559124","0.0-2.0-0.32","CL","1","pretest","true","4941306","null","","",""
"null","../img/tt/1093tt.jpg","","mooney1","image-keyboard-response","195","562129","0.0-2.0-1.32","CL","1","pretest","true","4941306","null","../img/tt/1093tt.jpg","",""
"1098","<p></p>","","recognized","html-keyboard-response","196","563228","0.0-2.0-2.32","CL","1","pretest","true","4941306","89","../img/tt/1093tt.jpg","y",""
"null","../img/gs/1093gs.jpg","","solution","image-keyboard-response","197","565234","0.0-2.0-3.32","CL","1","pretest","true","4941306","null","","",""
"null","../img/tt/1093tt.jpg","","mooney2","image-keyboard-response","198","567239","0.0-2.0-4.32","CL","1","pretest","true","4941306","null","","",""
"403","<p>How strong was your <strong>aha-experience</strong>?</p>","","aha","html-keyboard-response","199","567644","0.0-2.0-5.32","CL","1","pretest","true","4941306","49","../img/tt/1093tt.jpg","","1"
"null","<div style=""font-size:60px;""> </div>","","fixation","html-keyboard-response","200","567846","0.0-2.0-0.33","CL","1","pretest","true","4941306","null","","",""
"null","../img/tt/040tt.jpg","","mooney1","image-keyboard-response","201","570853","0.0-2.0-1.33","CL","1","pretest","true","4941306","null","../img/tt/040tt.jpg","",""
"483","<p></p>","","recognized","html-keyboard-response","202","571337","0.0-2.0-2.33","CL","1","pretest","true","4941306","78","../img/tt/040tt.jpg","n",""
"null","../img/gs/040gs.jpg","","solution","image-keyboard-response","203","573340","0.0-2.0-3.33","CL","1","pretest","true","4941306","null","","",""
"null","../img/tt/040tt.jpg","","mooney2","image-keyboard-response","204","575342","0.0-2.0-4.33","CL","1","pretest","true","4941306","null","","",""
"1476","<p>How strong was your <strong>aha-experience</strong>?</p>","","aha","html-keyboard-response","205","576819","0.0-2.0-5.33","CL","1","pretest","true","4941306","53","../img/tt/040tt.jpg","","5"
"null","<div style=""font-size:60px;""> </div>","","fixation","html-keyboard-response","206","577021","0.0-2.0-0.34","CL","1","pretest","true","4941306","null","","",""
"null","../img/tt/1176tt.jpg","","mooney1","image-keyboard-response","207","580026","0.0-2.0-1.34","CL","1","pretest","true","4941306","null","../img/tt/1176tt.jpg","",""
"1218","<p></p>","","recognized","html-keyboard-response","208","581245","0.0-2.0-2.34","CL","1","pretest","true","4941306","78","../img/tt/1176tt.jpg","n",""
"null","../img/gs/1176gs.jpg","","solution","image-keyboard-response","209","583248","0.0-2.0-3.34","CL","1","pretest","true","4941306","null","","",""
"null","../img/tt/1176tt.jpg","","mooney2","image-keyboard-response","210","585251","0.0-2.0-4.34","CL","1","pretest","true","4941306","null","","",""
"3356","<p>How strong was your <strong>aha-experience</strong>?</p>","","aha","html-keyboard-response","211","588608","0.0-2.0-5.34","CL","1","pretest","true","4941306","51","../img/tt/1176tt.jpg","","3"
"null","<div style=""font-size:60px;""> </div>","","fixation","html-keyboard-response","212","588813","0.0-2.0-0.35","CL","1","pretest","true","4941306","null","","",""
"null","../img/tt/1254tt.jpg","","mooney1","image-keyboard-response","213","591820","0.0-2.0-1.35","CL","1","pretest","true","4941306","null","../img/tt/1254tt.jpg","",""
"1204","<p></p>","","recognized","html-keyboard-response","214","593025","0.0-2.0-2.35","CL","1","pretest","true","4941306","78","../img/tt/1254tt.jpg","n",""
"null","../img/gs/1254gs.jpg","","solution","image-keyboard-response","215","595029","0.0-2.0-3.35","CL","1","pretest","true","4941306","null","","",""
"null","../img/tt/1254tt.jpg","","mooney2","image-keyboard-response","216","597031","0.0-2.0-4.35","CL","1","pretest","true","4941306","null","","",""
"3463","<p>How strong was your <strong>aha-experience</strong>?</p>","","aha","html-keyboard-response","217","600494","0.0-2.0-5.35","CL","1","pretest","true","4941306","52","../img/tt/1254tt.jpg","","4"
"null","<div style=""font-size:60px;""> </div>","","fixation","html-keyboard-response","218","600698","0.0-2.0-0.36","CL","1","pretest","true","4941306","null","","",""
"null","../img/tt/1194tt.jpg","","mooney1","image-keyboard-response","219","603702","0.0-2.0-1.36","CL","1","pretest","true","4941306","null","../img/tt/1194tt.jpg","",""
"2450","<p></p>","","recognized","html-keyboard-response","220","606152","0.0-2.0-2.36","CL","1","pretest","true","4941306","89","../img/tt/1194tt.jpg","y",""
"null","../img/gs/1194gs.jpg","","solution","image-keyboard-response","221","608158","0.0-2.0-3.36","CL","1","pretest","true","4941306","null","","",""
"null","../img/tt/1194tt.jpg","","mooney2","image-keyboard-response","222","610159","0.0-2.0-4.36","CL","1","pretest","true","4941306","null","","",""
"325","<p>How strong was your <strong>aha-experience</strong>?</p>","","aha","html-keyboard-response","223","610485","0.0-2.0-5.36","CL","1","pretest","true","4941306","51","../img/tt/1194tt.jpg","","3"
"null","<div style=""font-size:60px;""> </div>","","fixation","html-keyboard-response","224","610689","0.0-2.0-0.37","CL","1","pretest","true","4941306","null","","",""
"null","../img/tt/1153tt.jpg","","mooney1","image-keyboard-response","225","613691","0.0-2.0-1.37","CL","1","pretest","true","4941306","null","../img/tt/1153tt.jpg","",""
"1260","<p></p>","","recognized","html-keyboard-response","226","614951","0.0-2.0-2.37","CL","1","pretest","true","4941306","89","../img/tt/1153tt.jpg","y",""
"null","../img/gs/1153gs.jpg","","solution","image-keyboard-response","227","616958","0.0-2.0-3.37","CL","1","pretest","true","4941306","null","","",""
"null","../img/tt/1153tt.jpg","","mooney2","image-keyboard-response","228","618962","0.0-2.0-4.37","CL","1","pretest","true","4941306","null","","",""
"3062","<p>How strong was your <strong>aha-experience</strong>?</p>","","aha","html-keyboard-response","229","622025","0.0-2.0-5.37","CL","1","pretest","true","4941306","50","../img/tt/1153tt.jpg","","2"
"null","<div style=""font-size:60px;""> </div>","","fixation","html-keyboard-response","230","622229","0.0-2.0-0.38","CL","1","pretest","true","4941306","null","","",""
"null","../img/tt/121tt.jpg","","mooney1","image-keyboard-response","231","625235","0.0-2.0-1.38","CL","1","pretest","true","4941306","null","../img/tt/121tt.jpg","",""
"464","<p></p>","","recognized","html-keyboard-response","232","625700","0.0-2.0-2.38","CL","1","pretest","true","4941306","78","../img/tt/121tt.jpg","n",""
"null","../img/gs/121gs.jpg","","solution","image-keyboard-response","233","627702","0.0-2.0-3.38","CL","1","pretest","true","4941306","null","","",""
"null","../img/tt/121tt.jpg","","mooney2","image-keyboard-response","234","629708","0.0-2.0-4.38","CL","1","pretest","true","4941306","null","","",""
"2551","<p>How strong was your <strong>aha-experience</strong>?</p>","","aha","html-keyboard-response","235","632260","0.0-2.0-5.38","CL","1","pretest","true","4941306","52","../img/tt/121tt.jpg","","4"
"null","<div style=""font-size:60px;""> </div>","","fixation","html-keyboard-response","236","632463","0.0-2.0-0.39","CL","1","pretest","true","4941306","null","","",""
"null","../img/tt/013tt.jpg","","mooney1","image-keyboard-response","237","635468","0.0-2.0-1.39","CL","1","pretest","true","4941306","null","../img/tt/013tt.jpg","",""
"604","<p></p>","","recognized","html-keyboard-response","238","636073","0.0-2.0-2.39","CL","1","pretest","true","4941306","78","../img/tt/013tt.jpg","n",""
"null","../img/gs/013gs.jpg","","solution","image-keyboard-response","239","638077","0.0-2.0-3.39","CL","1","pretest","true","4941306","null","","",""
"null","../img/tt/013tt.jpg","","mooney2","image-keyboard-response","240","640081","0.0-2.0-4.39","CL","1","pretest","true","4941306","null","","",""
"1527","<p>How strong was your <strong>aha-experience</strong>?</p>","","aha","html-keyboard-response","241","641609","0.0-2.0-5.39","CL","1","pretest","true","4941306","54","../img/tt/013tt.jpg","","6"
"null","<div style=""font-size:60px;""> </div>","","fixation","html-keyboard-response","242","641814","0.0-2.0-0.40","CL","1","pretest","true","4941306","null","","",""
"null","../img/tt/1064tt.jpg","","mooney1","image-keyboard-response","243","644819","0.0-2.0-1.40","CL","1","pretest","true","4941306","null","../img/tt/1064tt.jpg","",""
"1048","<p></p>","","recognized","html-keyboard-response","244","645867","0.0-2.0-2.40","CL","1","pretest","true","4941306","89","../img/tt/1064tt.jpg","y",""
"null","../img/gs/1064gs.jpg","","solution","image-keyboard-response","245","647870","0.0-2.0-3.40","CL","1","pretest","true","4941306","null","","",""
"null","../img/tt/1064tt.jpg","","mooney2","image-keyboard-response","246","649871","0.0-2.0-4.40","CL","1","pretest","true","4941306","null","","",""
"306","<p>How strong was your <strong>aha-experience</strong>?</p>","","aha","html-keyboard-response","247","650178","0.0-2.0-5.40","CL","1","pretest","true","4941306","49","../img/tt/1064tt.jpg","","1"
"null","<div style=""font-size:60px;""> </div>","","fixation","html-keyboard-response","248","650381","0.0-2.0-0.41","CL","1","pretest","true","4941306","null","","",""
"null","../img/tt/1140tt.jpg","","mooney1","image-keyboard-response","249","653385","0.0-2.0-1.41","CL","1","pretest","true","4941306","null","../img/tt/1140tt.jpg","",""
"398","<p></p>","","recognized","html-keyboard-response","250","653783","0.0-2.0-2.41","CL","1","pretest","true","4941306","89","../img/tt/1140tt.jpg","y",""
"null","../img/gs/1140gs.jpg","","solution","image-keyboard-response","251","655786","0.0-2.0-3.41","CL","1","pretest","true","4941306","null","","",""
"null","../img/tt/1140tt.jpg","","mooney2","image-keyboard-response","252","657788","0.0-2.0-4.41","CL","1","pretest","true","4941306","null","","",""
"316","<p>How strong was your <strong>aha-experience</strong>?</p>","","aha","html-keyboard-response","253","658104","0.0-2.0-5.41","CL","1","pretest","true","4941306","49","../img/tt/1140tt.jpg","","1"
"null","<div style=""font-size:60px;""> </div>","","fixation","html-keyboard-response","254","658305","0.0-2.0-0.42","CL","1","pretest","true","4941306","null","","",""
"null","../img/tt/1108tt.jpg","","mooney1","image-keyboard-response","255","661308","0.0-2.0-1.42","CL","1","pretest","true","4941306","null","../img/tt/1108tt.jpg","",""
"504","<p></p>","","recognized","html-keyboard-response","256","661813","0.0-2.0-2.42","CL","1","pretest","true","4941306","89","../img/tt/1108tt.jpg","y",""
"null","../img/gs/1108gs.jpg","","solution","image-keyboard-response","257","663814","0.0-2.0-3.42","CL","1","pretest","true","4941306","null","","",""
"null","../img/tt/1108tt.jpg","","mooney2","image-keyboard-response","258","665816","0.0-2.0-4.42","CL","1","pretest","true","4941306","null","","",""
"2146","<p>How strong was your <strong>aha-experience</strong>?</p>","","aha","html-keyboard-response","259","667962","0.0-2.0-5.42","CL","1","pretest","true","4941306","50","../img/tt/1108tt.jpg","","2"
"null","<div style=""font-size:60px;""> </div>","","fixation","html-keyboard-response","260","668163","0.0-2.0-0.43","CL","1","pretest","true","4941306","null","","",""
"null","../img/tt/1192tt.jpg","","mooney1","image-keyboard-response","261","671170","0.0-2.0-1.43","CL","1","pretest","true","4941306","null","../img/tt/1192tt.jpg","",""
"1134","<p></p>","","recognized","html-keyboard-response","262","672304","0.0-2.0-2.43","CL","1","pretest","true","4941306","89","../img/tt/1192tt.jpg","y",""
"null","../img/gs/1192gs.jpg","","solution","image-keyboard-response","263","674309","0.0-2.0-3.43","CL","1","pretest","true","4941306","null","","",""
"null","../img/tt/1192tt.jpg","","mooney2","image-keyboard-response","264","676314","0.0-2.0-4.43","CL","1","pretest","true","4941306","null","","",""
"1500","<p>How strong was your <strong>aha-experience</strong>?</p>","","aha","html-keyboard-response","265","677814","0.0-2.0-5.43","CL","1","pretest","true","4941306","50","../img/tt/1192tt.jpg","","2"
"null","<div style=""font-size:60px;""> </div>","","fixation","html-keyboard-response","266","678016","0.0-2.0-0.44","CL","1","pretest","true","4941306","null","","",""
"null","../img/tt/064tt.jpg","","mooney1","image-keyboard-response","267","681021","0.0-2.0-1.44","CL","1","pretest","true","4941306","null","../img/tt/064tt.jpg","",""
"910","<p></p>","","recognized","html-keyboard-response","268","681931","0.0-2.0-2.44","CL","1","pretest","true","4941306","78","../img/tt/064tt.jpg","n",""
"null","../img/gs/064gs.jpg","","solution","image-keyboard-response","269","683935","0.0-2.0-3.44","CL","1","pretest","true","4941306","null","","",""
"null","../img/tt/064tt.jpg","","mooney2","image-keyboard-response","270","685940","0.0-2.0-4.44","CL","1","pretest","true","4941306","null","","",""
"1389","<p>How strong was your <strong>aha-experience</strong>?</p>","","aha","html-keyboard-response","271","687330","0.0-2.0-5.44","CL","1","pretest","true","4941306","53","../img/tt/064tt.jpg","","5"
"null","<div style=""font-size:60px;""> </div>","","fixation","html-keyboard-response","272","687532","0.0-2.0-0.45","CL","1","pretest","true","4941306","null","","",""
"null","../img/tt/1134tt.jpg","","mooney1","image-keyboard-response","273","690534","0.0-2.0-1.45","CL","1","pretest","true","4941306","null","../img/tt/1134tt.jpg","",""
"2923","<p></p>","","recognized","html-keyboard-response","274","693457","0.0-2.0-2.45","CL","1","pretest","true","4941306","89","../img/tt/1134tt.jpg","y",""
"null","../img/gs/1134gs.jpg","","solution","image-keyboard-response","275","695462","0.0-2.0-3.45","CL","1","pretest","true","4941306","null","","",""
"null","../img/tt/1134tt.jpg","","mooney2","image-keyboard-response","276","697466","0.0-2.0-4.45","CL","1","pretest","true","4941306","null","","",""
"7853","<p>How strong was your <strong>aha-experience</strong>?</p>","","aha","html-keyboard-response","277","705320","0.0-2.0-5.45","CL","1","pretest","true","4941306","51","../img/tt/1134tt.jpg","","3"
"null","<div style=""font-size:60px;""> </div>","","fixation","html-keyboard-response","278","705524","0.0-2.0-0.46","CL","1","pretest","true","4941306","null","","",""
"null","../img/tt/1099tt.jpg","","mooney1","image-keyboard-response","279","708528","0.0-2.0-1.46","CL","1","pretest","true","4941306","null","../img/tt/1099tt.jpg","",""
"414","<p></p>","","recognized","html-keyboard-response","280","708943","0.0-2.0-2.46","CL","1","pretest","true","4941306","78","../img/tt/1099tt.jpg","n",""
"null","../img/gs/1099gs.jpg","","solution","image-keyboard-response","281","710949","0.0-2.0-3.46","CL","1","pretest","true","4941306","null","","",""
"null","../img/tt/1099tt.jpg","","mooney2","image-keyboard-response","282","712954","0.0-2.0-4.46","CL","1","pretest","true","4941306","null","","",""
"1327","<p>How strong was your <strong>aha-experience</strong>?</p>","","aha","html-keyboard-response","283","714281","0.0-2.0-5.46","CL","1","pretest","true","4941306","51","../img/tt/1099tt.jpg","","3"
"null","<div style=""font-size:60px;""> </div>","","fixation","html-keyboard-response","284","714483","0.0-2.0-0.47","CL","1","pretest","true","4941306","null","","",""
"null","../img/tt/1148tt.jpg","","mooney1","image-keyboard-response","285","717488","0.0-2.0-1.47","CL","1","pretest","true","4941306","null","../img/tt/1148tt.jpg","",""
"825","<p></p>","","recognized","html-keyboard-response","286","718313","0.0-2.0-2.47","CL","1","pretest","true","4941306","78","../img/tt/1148tt.jpg","n",""
"null","../img/gs/1148gs.jpg","","solution","image-keyboard-response","287","720317","0.0-2.0-3.47","CL","1","pretest","true","4941306","null","","",""
"null","../img/tt/1148tt.jpg","","mooney2","image-keyboard-response","288","722325","0.0-2.0-4.47","CL","1","pretest","true","4941306","null","","",""
"1104","<p>How strong was your <strong>aha-experience</strong>?</p>","","aha","html-keyboard-response","289","723430","0.0-2.0-5.47","CL","1","pretest","true","4941306","50","../img/tt/1148tt.jpg","","2"
"null","<div style=""font-size:60px;""> </div>","","fixation","html-keyboard-response","290","723635","0.0-2.0-0.48","CL","1","pretest","true","4941306","null","","",""
"null","../img/tt/1241tt.jpg","","mooney1","image-keyboard-response","291","726640","0.0-2.0-1.48","CL","1","pretest","true","4941306","null","../img/tt/1241tt.jpg","",""
"1398","<p></p>","","recognized","html-keyboard-response","292","728038","0.0-2.0-2.48","CL","1","pretest","true","4941306","78","../img/tt/1241tt.jpg","n",""
"null","../img/gs/1241gs.jpg","","solution","image-keyboard-response","293","730040","0.0-2.0-3.48","CL","1","pretest","true","4941306","null","","",""
"null","../img/tt/1241tt.jpg","","mooney2","image-keyboard-response","294","732043","0.0-2.0-4.48","CL","1","pretest","true","4941306","null","","",""
"752","<p>How strong was your <strong>aha-experience</strong>?</p>","","aha","html-keyboard-response","295","732796","0.0-2.0-5.48","CL","1","pretest","true","4941306","54","../img/tt/1241tt.jpg","","6"
"null","<div style=""font-size:60px;""> </div>","","fixation","html-keyboard-response","296","733002","0.0-2.0-0.49","CL","1","pretest","true","4941306","null","","",""
"null","../img/tt/1098tt.jpg","","mooney1","image-keyboard-response","297","736004","0.0-2.0-1.49","CL","1","pretest","true","4941306","null","../img/tt/1098tt.jpg","",""
"769","<p></p>","","recognized","html-keyboard-response","298","736773","0.0-2.0-2.49","CL","1","pretest","true","4941306","78","../img/tt/1098tt.jpg","n",""
"null","../img/gs/1098gs.jpg","","solution","image-keyboard-response","299","738777","0.0-2.0-3.49","CL","1","pretest","true","4941306","null","","",""
"null","../img/tt/1098tt.jpg","","mooney2","image-keyboard-response","300","740782","0.0-2.0-4.49","CL","1","pretest","true","4941306","null","","",""
"1600","<p>How strong was your <strong>aha-experience</strong>?</p>","","aha","html-keyboard-response","301","742382","0.0-2.0-5.49","CL","1","pretest","true","4941306","53","../img/tt/1098tt.jpg","","5"
"null","<div style=""font-size:60px;""> </div>","","fixation","html-keyboard-response","302","742587","0.0-2.0-0.50","CL","1","pretest","true","4941306","null","","",""
"null","../img/tt/1083tt.jpg","","mooney1","image-keyboard-response","303","745593","0.0-2.0-1.50","CL","1","pretest","true","4941306","null","../img/tt/1083tt.jpg","",""
"1095","<p></p>","","recognized","html-keyboard-response","304","746688","0.0-2.0-2.50","CL","1","pretest","true","4941306","89","../img/tt/1083tt.jpg","y",""
"null","../img/gs/1083gs.jpg","","solution","image-keyboard-response","305","748690","0.0-2.0-3.50","CL","1","pretest","true","4941306","null","","",""
"null","../img/tt/1083tt.jpg","","mooney2","image-keyboard-response","306","750692","0.0-2.0-4.50","CL","1","pretest","true","4941306","null","","",""
"1567","<p>How strong was your <strong>aha-experience</strong>?</p>","","aha","html-keyboard-response","307","752261","0.0-2.0-5.50","CL","1","pretest","true","4941306","52","../img/tt/1083tt.jpg","","4"
"null","<div style=""font-size:60px;""> </div>","","fixation","html-keyboard-response","308","752463","0.0-2.0-0.51","CL","1","pretest","true","4941306","null","","",""
"null","../img/tt/1274tt.jpg","","mooney1","image-keyboard-response","309","755469","0.0-2.0-1.51","CL","1","pretest","true","4941306","null","../img/tt/1274tt.jpg","",""
"1278","<p></p>","","recognized","html-keyboard-response","310","756748","0.0-2.0-2.51","CL","1","pretest","true","4941306","78","../img/tt/1274tt.jpg","n",""
"null","../img/gs/1274gs.jpg","","solution","image-keyboard-response","311","758754","0.0-2.0-3.51","CL","1","pretest","true","4941306","null","","",""
"null","../img/tt/1274tt.jpg","","mooney2","image-keyboard-response","312","760760","0.0-2.0-4.51","CL","1","pretest","true","4941306","null","","",""
"1594","<p>How strong was your <strong>aha-experience</strong>?</p>","","aha","html-keyboard-response","313","762355","0.0-2.0-5.51","CL","1","pretest","true","4941306","51","../img/tt/1274tt.jpg","","3"
"null","<div style=""font-size:60px;""> </div>","","fixation","html-keyboard-response","314","762559","0.0-2.0-0.52","CL","1","pretest","true","4941306","null","","",""
"null","../img/tt/1122tt.jpg","","mooney1","image-keyboard-response","315","765565","0.0-2.0-1.52","CL","1","pretest","true","4941306","null","../img/tt/1122tt.jpg","",""
"1002","<p></p>","","recognized","html-keyboard-response","316","766568","0.0-2.0-2.52","CL","1","pretest","true","4941306","89","../img/tt/1122tt.jpg","y",""
"null","../img/gs/1122gs.jpg","","solution","image-keyboard-response","317","768573","0.0-2.0-3.52","CL","1","pretest","true","4941306","null","","",""
"null","../img/tt/1122tt.jpg","","mooney2","image-keyboard-response","318","770578","0.0-2.0-4.52","CL","1","pretest","true","4941306","null","","",""
"1959","<p>How strong was your <strong>aha-experience</strong>?</p>","","aha","html-keyboard-response","319","772537","0.0-2.0-5.52","CL","1","pretest","true","4941306","51","../img/tt/1122tt.jpg","","3"
"null","<div style=""font-size:60px;""> </div>","","fixation","html-keyboard-response","320","772740","0.0-2.0-0.53","CL","1","pretest","true","4941306","null","","",""
"null","../img/tt/1029tt.jpg","","mooney1","image-keyboard-response","321","775745","0.0-2.0-1.53","CL","1","pretest","true","4941306","null","../img/tt/1029tt.jpg","",""
"645","<p></p>","","recognized","html-keyboard-response","322","776391","0.0-2.0-2.53","CL","1","pretest","true","4941306","78","../img/tt/1029tt.jpg","n",""
"null","../img/gs/1029gs.jpg","","solution","image-keyboard-response","323","778397","0.0-2.0-3.53","CL","1","pretest","true","4941306","null","","",""
"null","../img/tt/1029tt.jpg","","mooney2","image-keyboard-response","324","780401","0.0-2.0-4.53","CL","1","pretest","true","4941306","null","","",""
"2234","<p>How strong was your <strong>aha-experience</strong>?</p>","","aha","html-keyboard-response","325","782635","0.0-2.0-5.53","CL","1","pretest","true","4941306","53","../img/tt/1029tt.jpg","","5"
"null","<div style=""font-size:60px;""> </div>","","fixation","html-keyboard-response","326","782840","0.0-2.0-0.54","CL","1","pretest","true","4941306","null","","",""
"null","../img/tt/1030tt.jpg","","mooney1","image-keyboard-response","327","785843","0.0-2.0-1.54","CL","1","pretest","true","4941306","null","../img/tt/1030tt.jpg","",""
"877","<p></p>","","recognized","html-keyboard-response","328","786720","0.0-2.0-2.54","CL","1","pretest","true","4941306","89","../img/tt/1030tt.jpg","y",""
"null","../img/gs/1030gs.jpg","","solution","image-keyboard-response","329","788722","0.0-2.0-3.54","CL","1","pretest","true","4941306","null","","",""
"null","../img/tt/1030tt.jpg","","mooney2","image-keyboard-response","330","790725","0.0-2.0-4.54","CL","1","pretest","true","4941306","null","","",""
"1113","<p>How strong was your <strong>aha-experience</strong>?</p>","","aha","html-keyboard-response","331","791838","0.0-2.0-5.54","CL","1","pretest","true","4941306","50","../img/tt/1030tt.jpg","","2"
"null","<div style=""font-size:60px;""> </div>","","fixation","html-keyboard-response","332","792043","0.0-2.0-0.55","CL","1","pretest","true","4941306","null","","",""
"null","../img/tt/1094tt.jpg","","mooney1","image-keyboard-response","333","795045","0.0-2.0-1.55","CL","1","pretest","true","4941306","null","../img/tt/1094tt.jpg","",""
"422","<p></p>","","recognized","html-keyboard-response","334","795468","0.0-2.0-2.55","CL","1","pretest","true","4941306","89","../img/tt/1094tt.jpg","y",""
"null","../img/gs/1094gs.jpg","","solution","image-keyboard-response","335","797472","0.0-2.0-3.55","CL","1","pretest","true","4941306","null","","",""
"null","../img/tt/1094tt.jpg","","mooney2","image-keyboard-response","336","799477","0.0-2.0-4.55","CL","1","pretest","true","4941306","null","","",""
"285","<p>How strong was your <strong>aha-experience</strong>?</p>","","aha","html-keyboard-response","337","799762","0.0-2.0-5.55","CL","1","pretest","true","4941306","49","../img/tt/1094tt.jpg","","1"
"null","<div style=""font-size:60px;""> </div>","","fixation","html-keyboard-response","338","799965","0.0-2.0-0.56","CL","1","pretest","true","4941306","null","","",""
"null","../img/tt/119tt.jpg","","mooney1","image-keyboard-response","339","802968","0.0-2.0-1.56","CL","1","pretest","true","4941306","null","../img/tt/119tt.jpg","",""
"352","<p></p>","","recognized","html-keyboard-response","340","803320","0.0-2.0-2.56","CL","1","pretest","true","4941306","89","../img/tt/119tt.jpg","y",""
"null","../img/gs/119gs.jpg","","solution","image-keyboard-response","341","805325","0.0-2.0-3.56","CL","1","pretest","true","4941306","null","","",""
"null","../img/tt/119tt.jpg","","mooney2","image-keyboard-response","342","807326","0.0-2.0-4.56","CL","1","pretest","true","4941306","null","","",""
"1726","<p>How strong was your <strong>aha-experience</strong>?</p>","","aha","html-keyboard-response","343","809053","0.0-2.0-5.56","CL","1","pretest","true","4941306","49","../img/tt/119tt.jpg","","1"
"null","<div style=""font-size:60px;""> </div>","","fixation","html-keyboard-response","344","809259","0.0-2.0-0.57","CL","1","pretest","true","4941306","null","","",""
"null","../img/tt/098tt.jpg","","mooney1","image-keyboard-response","345","812263","0.0-2.0-1.57","CL","1","pretest","true","4941306","null","../img/tt/098tt.jpg","",""
"569","<p></p>","","recognized","html-keyboard-response","346","812833","0.0-2.0-2.57","CL","1","pretest","true","4941306","78","../img/tt/098tt.jpg","n",""
"null","../img/gs/098gs.jpg","","solution","image-keyboard-response","347","814839","0.0-2.0-3.57","CL","1","pretest","true","4941306","null","","",""
"null","../img/tt/098tt.jpg","","mooney2","image-keyboard-response","348","816843","0.0-2.0-4.57","CL","1","pretest","true","4941306","null","","",""
"967","<p>How strong was your <strong>aha-experience</strong>?</p>","","aha","html-keyboard-response","349","817811","0.0-2.0-5.57","CL","1","pretest","true","4941306","51","../img/tt/098tt.jpg","","3"
"null","<div style=""font-size:60px;""> </div>","","fixation","html-keyboard-response","350","818016","0.0-2.0-0.58","CL","1","pretest","true","4941306","null","","",""
"null","../img/tt/1263tt.jpg","","mooney1","image-keyboard-response","351","821022","0.0-2.0-1.58","CL","1","pretest","true","4941306","null","../img/tt/1263tt.jpg","",""
"1632","<p></p>","","recognized","html-keyboard-response","352","822656","0.0-2.0-2.58","CL","1","pretest","true","4941306","89","../img/tt/1263tt.jpg","y",""
"null","../img/gs/1263gs.jpg","","solution","image-keyboard-response","353","824658","0.0-2.0-3.58","CL","1","pretest","true","4941306","null","","",""
"null","../img/tt/1263tt.jpg","","mooney2","image-keyboard-response","354","826661","0.0-2.0-4.58","CL","1","pretest","true","4941306","null","","",""
"954","<p>How strong was your <strong>aha-experience</strong>?</p>","","aha","html-keyboard-response","355","827616","0.0-2.0-5.58","CL","1","pretest","true","4941306","51","../img/tt/1263tt.jpg","","3"
"null","<div style=""font-size:60px;""> </div>","","fixation","html-keyboard-response","356","827818","0.0-2.0-0.59","CL","1","pretest","true","4941306","null","","",""
"null","../img/tt/1270tt.jpg","","mooney1","image-keyboard-response","357","830824","0.0-2.0-1.59","CL","1","pretest","true","4941306","null","../img/tt/1270tt.jpg","",""
"778","<p></p>","","recognized","html-keyboard-response","358","831603","0.0-2.0-2.59","CL","1","pretest","true","4941306","89","../img/tt/1270tt.jpg","y",""
"null","../img/gs/1270gs.jpg","","solution","image-keyboard-response","359","833608","0.0-2.0-3.59","CL","1","pretest","true","4941306","null","","",""
"null","../img/tt/1270tt.jpg","","mooney2","image-keyboard-response","360","835612","0.0-2.0-4.59","CL","1","pretest","true","4941306","null","","",""
"2178","<p>How strong was your <strong>aha-experience</strong>?</p>","","aha","html-keyboard-response","361","837791","0.0-2.0-5.59","CL","1","pretest","true","4941306","50","../img/tt/1270tt.jpg","","2"
"null","<div style=""font-size:60px;""> </div>","","fixation","html-keyboard-response","362","837993","0.0-2.0-0.60","CL","1","pretest","true","4941306","null","","",""
"null","../img/tt/1150tt.jpg","","mooney1","image-keyboard-response","363","840999","0.0-2.0-1.60","CL","1","pretest","true","4941306","null","../img/tt/1150tt.jpg","",""
"532","<p></p>","","recognized","html-keyboard-response","364","841532","0.0-2.0-2.60","CL","1","pretest","true","4941306","89","../img/tt/1150tt.jpg","y",""
"null","../img/gs/1150gs.jpg","","solution","image-keyboard-response","365","843538","0.0-2.0-3.60","CL","1","pretest","true","4941306","null","","",""
"null","../img/tt/1150tt.jpg","","mooney2","image-keyboard-response","366","845543","0.0-2.0-4.60","CL","1","pretest","true","4941306","null","","",""
"601","<p>How strong was your <strong>aha-experience</strong>?</p>","","aha","html-keyboard-response","367","846145","0.0-2.0-5.60","CL","1","pretest","true","4941306","50","../img/tt/1150tt.jpg","","2"
"null","<div style=""font-size:60px;""> </div>","","fixation","html-keyboard-response","368","846350","0.0-2.0-0.61","CL","1","pretest","true","4941306","null","","",""
"null","../img/tt/1112tt.jpg","","mooney1","image-keyboard-response","369","849352","0.0-2.0-1.61","CL","1","pretest","true","4941306","null","../img/tt/1112tt.jpg","",""
"932","<p></p>","","recognized","html-keyboard-response","370","850284","0.0-2.0-2.61","CL","1","pretest","true","4941306","78","../img/tt/1112tt.jpg","n",""
"null","../img/gs/1112gs.jpg","","solution","image-keyboard-response","371","852286","0.0-2.0-3.61","CL","1","pretest","true","4941306","null","","",""
"null","../img/tt/1112tt.jpg","","mooney2","image-keyboard-response","372","854289","0.0-2.0-4.61","CL","1","pretest","true","4941306","null","","",""
"1549","<p>How strong was your <strong>aha-experience</strong>?</p>","","aha","html-keyboard-response","373","855840","0.0-2.0-5.61","CL","1","pretest","true","4941306","53","../img/tt/1112tt.jpg","","5"
"null","<div style=""font-size:60px;""> </div>","","fixation","html-keyboard-response","374","856044","0.0-2.0-0.62","CL","1","pretest","true","4941306","null","","",""
"null","../img/tt/046tt.jpg","","mooney1","image-keyboard-response","375","859050","0.0-2.0-1.62","CL","1","pretest","true","4941306","null","../img/tt/046tt.jpg","",""
"1444","<p></p>","","recognized","html-keyboard-response","376","860494","0.0-2.0-2.62","CL","1","pretest","true","4941306","78","../img/tt/046tt.jpg","n",""
"null","../img/gs/046gs.jpg","","solution","image-keyboard-response","377","862500","0.0-2.0-3.62","CL","1","pretest","true","4941306","null","","",""
"null","../img/tt/046tt.jpg","","mooney2","image-keyboard-response","378","864502","0.0-2.0-4.62","CL","1","pretest","true","4941306","null","","",""
"1446","<p>How strong was your <strong>aha-experience</strong>?</p>","","aha","html-keyboard-response","379","865949","0.0-2.0-5.62","CL","1","pretest","true","4941306","51","../img/tt/046tt.jpg","","3"
"null","<div style=""font-size:60px;""> </div>","","fixation","html-keyboard-response","380","866152","0.0-2.0-0.63","CL","1","pretest","true","4941306","null","","",""
"null","../img/tt/1021tt.jpg","","mooney1","image-keyboard-response","381","869159","0.0-2.0-1.63","CL","1","pretest","true","4941306","null","../img/tt/1021tt.jpg","",""
"1017","<p></p>","","recognized","html-keyboard-response","382","870177","0.0-2.0-2.63","CL","1","pretest","true","4941306","78","../img/tt/1021tt.jpg","n",""
"null","../img/gs/1021gs.jpg","","solution","image-keyboard-response","383","872178","0.0-2.0-3.63","CL","1","pretest","true","4941306","null","","",""
"null","../img/tt/1021tt.jpg","","mooney2","image-keyboard-response","384","874183","0.0-2.0-4.63","CL","1","pretest","true","4941306","null","","",""
"825","<p>How strong was your <strong>aha-experience</strong>?</p>","","aha","html-keyboard-response","385","875009","0.0-2.0-5.63","CL","1","pretest","true","4941306","53","../img/tt/1021tt.jpg","","5"
"null","<div style=""font-size:60px;""> </div>","","fixation","html-keyboard-response","386","875214","0.0-2.0-0.64","CL","1","pretest","true","4941306","null","","",""
"null","../img/tt/1053tt.jpg","","mooney1","image-keyboard-response","387","878216","0.0-2.0-1.64","CL","1","pretest","true","4941306","null","../img/tt/1053tt.jpg","",""
"1072","<p></p>","","recognized","html-keyboard-response","388","879289","0.0-2.0-2.64","CL","1","pretest","true","4941306","78","../img/tt/1053tt.jpg","n",""
"null","../img/gs/1053gs.jpg","","solution","image-keyboard-response","389","881294","0.0-2.0-3.64","CL","1","pretest","true","4941306","null","","",""
"null","../img/tt/1053tt.jpg","","mooney2","image-keyboard-response","390","883297","0.0-2.0-4.64","CL","1","pretest","true","4941306","null","","",""
"731","<p>How strong was your <strong>aha-experience</strong>?</p>","","aha","html-keyboard-response","391","884028","0.0-2.0-5.64","CL","1","pretest","true","4941306","53","../img/tt/1053tt.jpg","","5"
"null","<div style=""font-size:60px;""> </div>","","fixation","html-keyboard-response","392","884229","0.0-2.0-0.65","CL","1","pretest","true","4941306","null","","",""
"null","../img/tt/1126tt.jpg","","mooney1","image-keyboard-response","393","887233","0.0-2.0-1.65","CL","1","pretest","true","4941306","null","../img/tt/1126tt.jpg","",""
"1692","<p></p>","","recognized","html-keyboard-response","394","888927","0.0-2.0-2.65","CL","1","pretest","true","4941306","78","../img/tt/1126tt.jpg","n",""
"null","../img/gs/1126gs.jpg","","solution","image-keyboard-response","395","890929","0.0-2.0-3.65","CL","1","pretest","true","4941306","null","","",""
"null","../img/tt/1126tt.jpg","","mooney2","image-keyboard-response","396","892932","0.0-2.0-4.65","CL","1","pretest","true","4941306","null","","",""
"663","<p>How strong was your <strong>aha-experience</strong>?</p>","","aha","html-keyboard-response","397","893596","0.0-2.0-5.65","CL","1","pretest","true","4941306","53","../img/tt/1126tt.jpg","","5"
"null","<div style=""font-size:60px;""> </div>","","fixation","html-keyboard-response","398","893800","0.0-2.0-0.66","CL","1","pretest","true","4941306","null","","",""
"null","../img/tt/056tt.jpg","","mooney1","image-keyboard-response","399","896805","0.0-2.0-1.66","CL","1","pretest","true","4941306","null","../img/tt/056tt.jpg","",""
"1370","<p></p>","","recognized","html-keyboard-response","400","898175","0.0-2.0-2.66","CL","1","pretest","true","4941306","78","../img/tt/056tt.jpg","n",""
"null","../img/gs/056gs.jpg","","solution","image-keyboard-response","401","900178","0.0-2.0-3.66","CL","1","pretest","true","4941306","null","","",""
"null","../img/tt/056tt.jpg","","mooney2","image-keyboard-response","402","902183","0.0-2.0-4.66","CL","1","pretest","true","4941306","null","","",""
"460","<p>How strong was your <strong>aha-experience</strong>?</p>","","aha","html-keyboard-response","403","902644","0.0-2.0-5.66","CL","1","pretest","true","4941306","53","../img/tt/056tt.jpg","","5"
"null","<div style=""font-size:60px;""> </div>","","fixation","html-keyboard-response","404","902846","0.0-2.0-0.67","CL","1","pretest","true","4941306","null","","",""
"null","../img/tt/1087tt.jpg","","mooney1","image-keyboard-response","405","905852","0.0-2.0-1.67","CL","1","pretest","true","4941306","null","../img/tt/1087tt.jpg","",""
"1175","<p></p>","","recognized","html-keyboard-response","406","907027","0.0-2.0-2.67","CL","1","pretest","true","4941306","78","../img/tt/1087tt.jpg","n",""
"null","../img/gs/1087gs.jpg","","solution","image-keyboard-response","407","909032","0.0-2.0-3.67","CL","1","pretest","true","4941306","null","","",""
"null","../img/tt/1087tt.jpg","","mooney2","image-keyboard-response","408","911034","0.0-2.0-4.67","CL","1","pretest","true","4941306","null","","",""
"599","<p>How strong was your <strong>aha-experience</strong>?</p>","","aha","html-keyboard-response","409","911634","0.0-2.0-5.67","CL","1","pretest","true","4941306","54","../img/tt/1087tt.jpg","","6"
"null","<div style=""font-size:60px;""> </div>","","fixation","html-keyboard-response","410","911838","0.0-2.0-0.68","CL","1","pretest","true","4941306","null","","",""
"null","../img/tt/084tt.jpg","","mooney1","image-keyboard-response","411","914841","0.0-2.0-1.68","CL","1","pretest","true","4941306","null","../img/tt/084tt.jpg","",""
"1030","<p></p>","","recognized","html-keyboard-response","412","915871","0.0-2.0-2.68","CL","1","pretest","true","4941306","78","../img/tt/084tt.jpg","n",""
"null","../img/gs/084gs.jpg","","solution","image-keyboard-response","413","917876","0.0-2.0-3.68","CL","1","pretest","true","4941306","null","","",""
"null","../img/tt/084tt.jpg","","mooney2","image-keyboard-response","414","919879","0.0-2.0-4.68","CL","1","pretest","true","4941306","null","","",""
"1254","<p>How strong was your <strong>aha-experience</strong>?</p>","","aha","html-keyboard-response","415","921133","0.0-2.0-5.68","CL","1","pretest","true","4941306","53","../img/tt/084tt.jpg","","5"
"null","<div style=""font-size:60px;""> </div>","","fixation","html-keyboard-response","416","921335","0.0-2.0-0.69","CL","1","pretest","true","4941306","null","","",""
"null","../img/tt/1128tt.jpg","","mooney1","image-keyboard-response","417","924337","0.0-2.0-1.69","CL","1","pretest","true","4941306","null","../img/tt/1128tt.jpg","",""
"1196","<p></p>","","recognized","html-keyboard-response","418","925533","0.0-2.0-2.69","CL","1","pretest","true","4941306","78","../img/tt/1128tt.jpg","n",""
"null","../img/gs/1128gs.jpg","","solution","image-keyboard-response","419","927536","0.0-2.0-3.69","CL","1","pretest","true","4941306","null","","",""
"null","../img/tt/1128tt.jpg","","mooney2","image-keyboard-response","420","929542","0.0-2.0-4.69","CL","1","pretest","true","4941306","null","","",""
"138389","<p>How strong was your <strong>aha-experience</strong>?</p>","","aha","html-keyboard-response","421","1067933","0.0-2.0-5.69","CL","1","pretest","true","4941306","54","../img/tt/1128tt.jpg","","6"
"null","<div style=""font-size:60px;""> </div>","","fixation","html-keyboard-response","422","1068137","0.0-2.0-0.70","CL","1","pretest","true","4941306","null","","",""
"null","../img/tt/1169tt.jpg","","mooney1","image-keyboard-response","423","1071140","0.0-2.0-1.70","CL","1","pretest","true","4941306","null","../img/tt/1169tt.jpg","",""
"2171","<p></p>","","recognized","html-keyboard-response","424","1073312","0.0-2.0-2.70","CL","1","pretest","true","4941306","78","../img/tt/1169tt.jpg","n",""
"null","../img/gs/1169gs.jpg","","solution","image-keyboard-response","425","1075318","0.0-2.0-3.70","CL","1","pretest","true","4941306","null","","",""
"null","../img/tt/1169tt.jpg","","mooney2","image-keyboard-response","426","1077323","0.0-2.0-4.70","CL","1","pretest","true","4941306","null","","",""
"1872","<p>How strong was your <strong>aha-experience</strong>?</p>","","aha","html-keyboard-response","427","1079196","0.0-2.0-5.70","CL","1","pretest","true","4941306","52","../img/tt/1169tt.jpg","","4"
"null","<div style=""font-size:60px;""> </div>","","fixation","html-keyboard-response","428","1079399","0.0-2.0-0.71","CL","1","pretest","true","4941306","null","","",""
"null","../img/tt/1131tt.jpg","","mooney1","image-keyboard-response","429","1082403","0.0-2.0-1.71","CL","1","pretest","true","4941306","null","../img/tt/1131tt.jpg","",""
"1318","<p></p>","","recognized","html-keyboard-response","430","1083722","0.0-2.0-2.71","CL","1","pretest","true","4941306","89","../img/tt/1131tt.jpg","y",""
"null","../img/gs/1131gs.jpg","","solution","image-keyboard-response","431","1085725","0.0-2.0-3.71","CL","1","pretest","true","4941306","null","","",""
"null","../img/tt/1131tt.jpg","","mooney2","image-keyboard-response","432","1087730","0.0-2.0-4.71","CL","1","pretest","true","4941306","null","","",""
"2825","<p>How strong was your <strong>aha-experience</strong>?</p>","","aha","html-keyboard-response","433","1090555","0.0-2.0-5.71","CL","1","pretest","true","4941306","51","../img/tt/1131tt.jpg","","3"
"null","<div style=""font-size:60px;""> </div>","","fixation","html-keyboard-response","434","1090757","0.0-2.0-0.72","CL","1","pretest","true","4941306","null","","",""
"null","../img/tt/1118tt.jpg","","mooney1","image-keyboard-response","435","1093762","0.0-2.0-1.72","CL","1","pretest","true","4941306","null","../img/tt/1118tt.jpg","",""
"907","<p></p>","","recognized","html-keyboard-response","436","1094670","0.0-2.0-2.72","CL","1","pretest","true","4941306","78","../img/tt/1118tt.jpg","n",""
"null","../img/gs/1118gs.jpg","","solution","image-keyboard-response","437","1096674","0.0-2.0-3.72","CL","1","pretest","true","4941306","null","","",""
"null","../img/tt/1118tt.jpg","","mooney2","image-keyboard-response","438","1098677","0.0-2.0-4.72","CL","1","pretest","true","4941306","null","","",""
"583","<p>How strong was your <strong>aha-experience</strong>?</p>","","aha","html-keyboard-response","439","1099261","0.0-2.0-5.72","CL","1","pretest","true","4941306","53","../img/tt/1118tt.jpg","","5"
"null","<div style=""font-size:60px;""> </div>","","fixation","html-keyboard-response","440","1099464","0.0-2.0-0.73","CL","1","pretest","true","4941306","null","","",""
"null","../img/tt/1113tt.jpg","","mooney1","image-keyboard-response","441","1102468","0.0-2.0-1.73","CL","1","pretest","true","4941306","null","../img/tt/1113tt.jpg","",""
"1546","<p></p>","","recognized","html-keyboard-response","442","1104014","0.0-2.0-2.73","CL","1","pretest","true","4941306","78","../img/tt/1113tt.jpg","n",""
"null","../img/gs/1113gs.jpg","","solution","image-keyboard-response","443","1106018","0.0-2.0-3.73","CL","1","pretest","true","4941306","null","","",""
"null","../img/tt/1113tt.jpg","","mooney2","image-keyboard-response","444","1108025","0.0-2.0-4.73","CL","1","pretest","true","4941306","null","","",""
"2806","<p>How strong was your <strong>aha-experience</strong>?</p>","","aha","html-keyboard-response","445","1110832","0.0-2.0-5.73","CL","1","pretest","true","4941306","52","../img/tt/1113tt.jpg","","4"
"null","<div style=""font-size:60px;""> </div>","","fixation","html-keyboard-response","446","1111035","0.0-2.0-0.74","CL","1","pretest","true","4941306","null","","",""
"null","../img/tt/072tt.jpg","","mooney1","image-keyboard-response","447","1114040","0.0-2.0-1.74","CL","1","pretest","true","4941306","null","../img/tt/072tt.jpg","",""
"392","<p></p>","","recognized","html-keyboard-response","448","1114433","0.0-2.0-2.74","CL","1","pretest","true","4941306","78","../img/tt/072tt.jpg","n",""
"null","../img/gs/072gs.jpg","","solution","image-keyboard-response","449","1116436","0.0-2.0-3.74","CL","1","pretest","true","4941306","null","","",""
"null","../img/tt/072tt.jpg","","mooney2","image-keyboard-response","450","1118438","0.0-2.0-4.74","CL","1","pretest","true","4941306","null","","",""
"1948","<p>How strong was your <strong>aha-experience</strong>?</p>","","aha","html-keyboard-response","451","1120387","0.0-2.0-5.74","CL","1","pretest","true","4941306","50","../img/tt/072tt.jpg","","2"
"null","<div style=""font-size:60px;""> </div>","","fixation","html-keyboard-response","452","1120590","0.0-2.0-0.75","CL","1","pretest","true","4941306","null","","",""
"null","../img/tt/1261tt.jpg","","mooney1","image-keyboard-response","453","1123596","0.0-2.0-1.75","CL","1","pretest","true","4941306","null","../img/tt/1261tt.jpg","",""
"1349","<p></p>","","recognized","html-keyboard-response","454","1124946","0.0-2.0-2.75","CL","1","pretest","true","4941306","78","../img/tt/1261tt.jpg","n",""
"null","../img/gs/1261gs.jpg","","solution","image-keyboard-response","455","1126951","0.0-2.0-3.75","CL","1","pretest","true","4941306","null","","",""
"null","../img/tt/1261tt.jpg","","mooney2","image-keyboard-response","456","1128955","0.0-2.0-4.75","CL","1","pretest","true","4941306","null","","",""
"1434","<p>How strong was your <strong>aha-experience</strong>?</p>","","aha","html-keyboard-response","457","1130389","0.0-2.0-5.75","CL","1","pretest","true","4941306","54","../img/tt/1261tt.jpg","","6"
"null","<div style=""font-size:60px;""> </div>","","fixation","html-keyboard-response","458","1130591","0.0-2.0-0.76","CL","1","pretest","true","4941306","null","","",""
"null","../img/tt/1020tt.jpg","","mooney1","image-keyboard-response","459","1133595","0.0-2.0-1.76","CL","1","pretest","true","4941306","null","../img/tt/1020tt.jpg","",""
"2051","<p></p>","","recognized","html-keyboard-response","460","1135647","0.0-2.0-2.76","CL","1","pretest","true","4941306","89","../img/tt/1020tt.jpg","y",""
"null","../img/gs/1020gs.jpg","","solution","image-keyboard-response","461","1137650","0.0-2.0-3.76","CL","1","pretest","true","4941306","null","","",""
"null","../img/tt/1020tt.jpg","","mooney2","image-keyboard-response","462","1139654","0.0-2.0-4.76","CL","1","pretest","true","4941306","null","","",""
"412","<p>How strong was your <strong>aha-experience</strong>?</p>","","aha","html-keyboard-response","463","1140066","0.0-2.0-5.76","CL","1","pretest","true","4941306","50","../img/tt/1020tt.jpg","","2"
"null","<div style=""font-size:60px;""> </div>","","fixation","html-keyboard-response","464","1140270","0.0-2.0-0.77","CL","1","pretest","true","4941306","null","","",""
"null","../img/tt/1013tt.jpg","","mooney1","image-keyboard-response","465","1143274","0.0-2.0-1.77","CL","1","pretest","true","4941306","null","../img/tt/1013tt.jpg","",""
"1148","<p></p>","","recognized","html-keyboard-response","466","1144423","0.0-2.0-2.77","CL","1","pretest","true","4941306","89","../img/tt/1013tt.jpg","y",""
"null","../img/gs/1013gs.jpg","","solution","image-keyboard-response","467","1146426","0.0-2.0-3.77","CL","1","pretest","true","4941306","null","","",""
"null","../img/tt/1013tt.jpg","","mooney2","image-keyboard-response","468","1148432","0.0-2.0-4.77","CL","1","pretest","true","4941306","null","","",""
"1855","<p>How strong was your <strong>aha-experience</strong>?</p>","","aha","html-keyboard-response","469","1150288","0.0-2.0-5.77","CL","1","pretest","true","4941306","51","../img/tt/1013tt.jpg","","3"
"null","<div style=""font-size:60px;""> </div>","","fixation","html-keyboard-response","470","1150490","0.0-2.0-0.78","CL","1","pretest","true","4941306","null","","",""
"null","../img/tt/1025tt.jpg","","mooney1","image-keyboard-response","471","1153494","0.0-2.0-1.78","CL","1","pretest","true","4941306","null","../img/tt/1025tt.jpg","",""
"935","<p></p>","","recognized","html-keyboard-response","472","1154431","0.0-2.0-2.78","CL","1","pretest","true","4941306","89","../img/tt/1025tt.jpg","y",""
"null","../img/gs/1025gs.jpg","","solution","image-keyboard-response","473","1156435","0.0-2.0-3.78","CL","1","pretest","true","4941306","null","","",""
"null","../img/tt/1025tt.jpg","","mooney2","image-keyboard-response","474","1158438","0.0-2.0-4.78","CL","1","pretest","true","4941306","null","","",""
"2081","<p>How strong was your <strong>aha-experience</strong>?</p>","","aha","html-keyboard-response","475","1160519","0.0-2.0-5.78","CL","1","pretest","true","4941306","51","../img/tt/1025tt.jpg","","3"
"null","<div style=""font-size:60px;""> </div>","","fixation","html-keyboard-response","476","1160720","0.0-2.0-0.79","CL","1","pretest","true","4941306","null","","",""
"null","../img/tt/1085tt.jpg","","mooney1","image-keyboard-response","477","1163724","0.0-2.0-1.79","CL","1","pretest","true","4941306","null","../img/tt/1085tt.jpg","",""
"432","<p></p>","","recognized","html-keyboard-response","478","1164156","0.0-2.0-2.79","CL","1","pretest","true","4941306","89","../img/tt/1085tt.jpg","y",""
"null","../img/gs/1085gs.jpg","","solution","image-keyboard-response","479","1166162","0.0-2.0-3.79","CL","1","pretest","true","4941306","null","","",""
"null","../img/tt/1085tt.jpg","","mooney2","image-keyboard-response","480","1168168","0.0-2.0-4.79","CL","1","pretest","true","4941306","null","","",""
"285","<p>How strong was your <strong>aha-experience</strong>?</p>","","aha","html-keyboard-response","481","1168453","0.0-2.0-5.79","CL","1","pretest","true","4941306","49","../img/tt/1085tt.jpg","","1"
"null","<div style=""font-size:60px;""> </div>","","fixation","html-keyboard-response","482","1168657","0.0-2.0-0.80","CL","1","pretest","true","4941306","null","","",""
"null","../img/tt/1073tt.jpg","","mooney1","image-keyboard-response","483","1171663","0.0-2.0-1.80","CL","1","pretest","true","4941306","null","../img/tt/1073tt.jpg","",""
"373","<p></p>","","recognized","html-keyboard-response","484","1172038","0.0-2.0-2.80","CL","1","pretest","true","4941306","89","../img/tt/1073tt.jpg","y",""
"null","../img/gs/1073gs.jpg","","solution","image-keyboard-response","485","1174041","0.0-2.0-3.80","CL","1","pretest","true","4941306","null","","",""
"null","../img/tt/1073tt.jpg","","mooney2","image-keyboard-response","486","1176043","0.0-2.0-4.80","CL","1","pretest","true","4941306","null","","",""
"771","<p>How strong was your <strong>aha-experience</strong>?</p>","","aha","html-keyboard-response","487","1176816","0.0-2.0-5.80","CL","1","pretest","true","4941306","49","../img/tt/1073tt.jpg","","1"
"null","<div style=""font-size:60px;""> </div>","","fixation","html-keyboard-response","488","1177017","0.0-2.0-0.81","CL","1","pretest","true","4941306","null","","",""
"null","../img/tt/1259tt.jpg","","mooney1","image-keyboard-response","489","1180020","0.0-2.0-1.81","CL","1","pretest","true","4941306","null","../img/tt/1259tt.jpg","",""
"1245","<p></p>","","recognized","html-keyboard-response","490","1181266","0.0-2.0-2.81","CL","1","pretest","true","4941306","78","../img/tt/1259tt.jpg","n",""
"null","../img/gs/1259gs.jpg","","solution","image-keyboard-response","491","1183270","0.0-2.0-3.81","CL","1","pretest","true","4941306","null","","",""
"null","../img/tt/1259tt.jpg","","mooney2","image-keyboard-response","492","1185272","0.0-2.0-4.81","CL","1","pretest","true","4941306","null","","",""
"1176","<p>How strong was your <strong>aha-experience</strong>?</p>","","aha","html-keyboard-response","493","1186449","0.0-2.0-5.81","CL","1","pretest","true","4941306","51","../img/tt/1259tt.jpg","","3"
"null","<div style=""font-size:60px;""> </div>","","fixation","html-keyboard-response","494","1186655","0.0-2.0-0.82","CL","1","pretest","true","4941306","null","","",""
"null","../img/tt/1269tt.jpg","","mooney1","image-keyboard-response","495","1189659","0.0-2.0-1.82","CL","1","pretest","true","4941306","null","../img/tt/1269tt.jpg","",""
"1390","<p></p>","","recognized","html-keyboard-response","496","1191050","0.0-2.0-2.82","CL","1","pretest","true","4941306","78","../img/tt/1269tt.jpg","n",""
"null","../img/gs/1269gs.jpg","","solution","image-keyboard-response","497","1193056","0.0-2.0-3.82","CL","1","pretest","true","4941306","null","","",""
"null","../img/tt/1269tt.jpg","","mooney2","image-keyboard-response","498","1195059","0.0-2.0-4.82","CL","1","pretest","true","4941306","null","","",""
"1988","<p>How strong was your <strong>aha-experience</strong>?</p>","","aha","html-keyboard-response","499","1197047","0.0-2.0-5.82","CL","1","pretest","true","4941306","51","../img/tt/1269tt.jpg","","3"
"null","<div style=""font-size:60px;""> </div>","","fixation","html-keyboard-response","500","1197249","0.0-2.0-0.83","CL","1","pretest","true","4941306","null","","",""
"null","../img/tt/067tt.jpg","","mooney1","image-keyboard-response","501","1200256","0.0-2.0-1.83","CL","1","pretest","true","4941306","null","../img/tt/067tt.jpg","",""
"771","<p></p>","","recognized","html-keyboard-response","502","1201028","0.0-2.0-2.83","CL","1","pretest","true","4941306","78","../img/tt/067tt.jpg","n",""
"null","../img/gs/067gs.jpg","","solution","image-keyboard-response","503","1203033","0.0-2.0-3.83","CL","1","pretest","true","4941306","null","","",""
"null","../img/tt/067tt.jpg","","mooney2","image-keyboard-response","504","1205037","0.0-2.0-4.83","CL","1","pretest","true","4941306","null","","",""
"943","<p>How strong was your <strong>aha-experience</strong>?</p>","","aha","html-keyboard-response","505","1205980","0.0-2.0-5.83","CL","1","pretest","true","4941306","53","../img/tt/067tt.jpg","","5"
"null","<div style=""font-size:60px;""> </div>","","fixation","html-keyboard-response","506","1206181","0.0-2.0-0.84","CL","1","pretest","true","4941306","null","","",""
"null","../img/tt/1044tt.jpg","","mooney1","image-keyboard-response","507","1209184","0.0-2.0-1.84","CL","1","pretest","true","4941306","null","../img/tt/1044tt.jpg","",""
"551","<p></p>","","recognized","html-keyboard-response","508","1209735","0.0-2.0-2.84","CL","1","pretest","true","4941306","78","../img/tt/1044tt.jpg","n",""
"null","../img/gs/1044gs.jpg","","solution","image-keyboard-response","509","1211737","0.0-2.0-3.84","CL","1","pretest","true","4941306","null","","",""
"null","../img/tt/1044tt.jpg","","mooney2","image-keyboard-response","510","1213741","0.0-2.0-4.84","CL","1","pretest","true","4941306","null","","",""
"1546","<p>How strong was your <strong>aha-experience</strong>?</p>","","aha","html-keyboard-response","511","1215288","0.0-2.0-5.84","CL","1","pretest","true","4941306","51","../img/tt/1044tt.jpg","","3"
"null","<div style=""font-size:60px;""> </div>","","fixation","html-keyboard-response","512","1215494","0.0-2.0-0.85","CL","1","pretest","true","4941306","null","","",""
"null","../img/tt/1284tt.jpg","","mooney1","image-keyboard-response","513","1218500","0.0-2.0-1.85","CL","1","pretest","true","4941306","null","../img/tt/1284tt.jpg","",""
"798","<p></p>","","recognized","html-keyboard-response","514","1219298","0.0-2.0-2.85","CL","1","pretest","true","4941306","89","../img/tt/1284tt.jpg","y",""
"null","../img/gs/1284gs.jpg","","solution","image-keyboard-response","515","1221299","0.0-2.0-3.85","CL","1","pretest","true","4941306","null","","",""
"null","../img/tt/1284tt.jpg","","mooney2","image-keyboard-response","516","1223305","0.0-2.0-4.85","CL","1","pretest","true","4941306","null","","",""
"358","<p>How strong was your <strong>aha-experience</strong>?</p>","","aha","html-keyboard-response","517","1223663","0.0-2.0-5.85","CL","1","pretest","true","4941306","49","../img/tt/1284tt.jpg","","1"
"null","<div style=""font-size:60px;""> </div>","","fixation","html-keyboard-response","518","1223865","0.0-2.0-0.86","CL","1","pretest","true","4941306","null","","",""
"null","../img/tt/1264tt.jpg","","mooney1","image-keyboard-response","519","1226870","0.0-2.0-1.86","CL","1","pretest","true","4941306","null","../img/tt/1264tt.jpg","",""
"653","<p></p>","","recognized","html-keyboard-response","520","1227523","0.0-2.0-2.86","CL","1","pretest","true","4941306","78","../img/tt/1264tt.jpg","n",""
"null","../img/gs/1264gs.jpg","","solution","image-keyboard-response","521","1229530","0.0-2.0-3.86","CL","1","pretest","true","4941306","null","","",""
"null","../img/tt/1264tt.jpg","","mooney2","image-keyboard-response","522","1231531","0.0-2.0-4.86","CL","1","pretest","true","4941306","null","","",""
"400","<p>How strong was your <strong>aha-experience</strong>?</p>","","aha","html-keyboard-response","523","1231932","0.0-2.0-5.86","CL","1","pretest","true","4941306","50","../img/tt/1264tt.jpg","","2"
"null","<div style=""font-size:60px;""> </div>","","fixation","html-keyboard-response","524","1232137","0.0-2.0-0.87","CL","1","pretest","true","4941306","null","","",""
"null","../img/tt/1186tt.jpg","","mooney1","image-keyboard-response","525","1235143","0.0-2.0-1.87","CL","1","pretest","true","4941306","null","../img/tt/1186tt.jpg","",""
"1126","<p></p>","","recognized","html-keyboard-response","526","1236269","0.0-2.0-2.87","CL","1","pretest","true","4941306","89","../img/tt/1186tt.jpg","y",""
"null","../img/gs/1186gs.jpg","","solution","image-keyboard-response","527","1238274","0.0-2.0-3.87","CL","1","pretest","true","4941306","null","","",""
"null","../img/tt/1186tt.jpg","","mooney2","image-keyboard-response","528","1240277","0.0-2.0-4.87","CL","1","pretest","true","4941306","null","","",""
"3876","<p>How strong was your <strong>aha-experience</strong>?</p>","","aha","html-keyboard-response","529","1244153","0.0-2.0-5.87","CL","1","pretest","true","4941306","51","../img/tt/1186tt.jpg","","3"
"null","<div style=""font-size:60px;""> </div>","","fixation","html-keyboard-response","530","1244355","0.0-2.0-0.88","CL","1","pretest","true","4941306","null","","",""
"null","../img/tt/076tt.jpg","","mooney1","image-keyboard-response","531","1247361","0.0-2.0-1.88","CL","1","pretest","true","4941306","null","../img/tt/076tt.jpg","",""
"1043","<p></p>","","recognized","html-keyboard-response","532","1248404","0.0-2.0-2.88","CL","1","pretest","true","4941306","78","../img/tt/076tt.jpg","n",""
"null","../img/gs/076gs.jpg","","solution","image-keyboard-response","533","1250410","0.0-2.0-3.88","CL","1","pretest","true","4941306","null","","",""
"null","../img/tt/076tt.jpg","","mooney2","image-keyboard-response","534","1252414","0.0-2.0-4.88","CL","1","pretest","true","4941306","null","","",""
"1513","<p>How strong was your <strong>aha-experience</strong>?</p>","","aha","html-keyboard-response","535","1253929","0.0-2.0-5.88","CL","1","pretest","true","4941306","51","../img/tt/076tt.jpg","","3"
"null","<div style=""font-size:60px;""> </div>","","fixation","html-keyboard-response","536","1254134","0.0-2.0-0.89","CL","1","pretest","true","4941306","null","","",""
"null","../img/tt/1146tt.jpg","","mooney1","image-keyboard-response","537","1257140","0.0-2.0-1.89","CL","1","pretest","true","4941306","null","../img/tt/1146tt.jpg","",""
"911","<p></p>","","recognized","html-keyboard-response","538","1258051","0.0-2.0-2.89","CL","1","pretest","true","4941306","78","../img/tt/1146tt.jpg","n",""
"null","../img/gs/1146gs.jpg","","solution","image-keyboard-response","539","1260052","0.0-2.0-3.89","CL","1","pretest","true","4941306","null","","",""
"null","../img/tt/1146tt.jpg","","mooney2","image-keyboard-response","540","1262054","0.0-2.0-4.89","CL","1","pretest","true","4941306","null","","",""
"1511","<p>How strong was your <strong>aha-experience</strong>?</p>","","aha","html-keyboard-response","541","1263567","0.0-2.0-5.89","CL","1","pretest","true","4941306","53","../img/tt/1146tt.jpg","","5"
"null","<div style=""font-size:60px;""> </div>","","fixation","html-keyboard-response","542","1263769","0.0-2.0-0.90","CL","1","pretest","true","4941306","null","","",""
"null","../img/tt/008tt.jpg","","mooney1","image-keyboard-response","543","1266774","0.0-2.0-1.90","CL","1","pretest","true","4941306","null","../img/tt/008tt.jpg","",""
"885","<p></p>","","recognized","html-keyboard-response","544","1267661","0.0-2.0-2.90","CL","1","pretest","true","4941306","78","../img/tt/008tt.jpg","n",""
"null","../img/gs/008gs.jpg","","solution","image-keyboard-response","545","1269666","0.0-2.0-3.90","CL","1","pretest","true","4941306","null","","",""
"null","../img/tt/008tt.jpg","","mooney2","image-keyboard-response","546","1271671","0.0-2.0-4.90","CL","1","pretest","true","4941306","null","","",""
"2274","<p>How strong was your <strong>aha-experience</strong>?</p>","","aha","html-keyboard-response","547","1273945","0.0-2.0-5.90","CL","1","pretest","true","4941306","53","../img/tt/008tt.jpg","","5"
"null","<div style=""font-size:60px;""> </div>","","fixation","html-keyboard-response","548","1274147","0.0-2.0-0.91","CL","1","pretest","true","4941306","null","","",""
"null","../img/tt/1211tt.jpg","","mooney1","image-keyboard-response","549","1277153","0.0-2.0-1.91","CL","1","pretest","true","4941306","null","../img/tt/1211tt.jpg","",""
"596","<p></p>","","recognized","html-keyboard-response","550","1277749","0.0-2.0-2.91","CL","1","pretest","true","4941306","89","../img/tt/1211tt.jpg","y",""
"null","../img/gs/1211gs.jpg","","solution","image-keyboard-response","551","1279752","0.0-2.0-3.91","CL","1","pretest","true","4941306","null","","",""
"null","../img/tt/1211tt.jpg","","mooney2","image-keyboard-response","552","1281755","0.0-2.0-4.91","CL","1","pretest","true","4941306","null","","",""
"5445","<p>How strong was your <strong>aha-experience</strong>?</p>","","aha","html-keyboard-response","553","1287201","0.0-2.0-5.91","CL","1","pretest","true","4941306","50","../img/tt/1211tt.jpg","","2"
"null","<div style=""font-size:60px;""> </div>","","fixation","html-keyboard-response","554","1287403","0.0-2.0-0.92","CL","1","pretest","true","4941306","null","","",""
"null","../img/tt/1199tt.jpg","","mooney1","image-keyboard-response","555","1290409","0.0-2.0-1.92","CL","1","pretest","true","4941306","null","../img/tt/1199tt.jpg","",""
"1118","<p></p>","","recognized","html-keyboard-response","556","1291527","0.0-2.0-2.92","CL","1","pretest","true","4941306","89","../img/tt/1199tt.jpg","y",""
"null","../img/gs/1199gs.jpg","","solution","image-keyboard-response","557","1293533","0.0-2.0-3.92","CL","1","pretest","true","4941306","null","","",""
"null","../img/tt/1199tt.jpg","","mooney2","image-keyboard-response","558","1295534","0.0-2.0-4.92","CL","1","pretest","true","4941306","null","","",""
"1926","<p>How strong was your <strong>aha-experience</strong>?</p>","","aha","html-keyboard-response","559","1297461","0.0-2.0-5.92","CL","1","pretest","true","4941306","50","../img/tt/1199tt.jpg","","2"
"null","<div style=""font-size:60px;""> </div>","","fixation","html-keyboard-response","560","1297663","0.0-2.0-0.93","CL","1","pretest","true","4941306","null","","",""
"null","../img/tt/1039tt.jpg","","mooney1","image-keyboard-response","561","1300670","0.0-2.0-1.93","CL","1","pretest","true","4941306","null","../img/tt/1039tt.jpg","",""
"1768","<p></p>","","recognized","html-keyboard-response","562","1302439","0.0-2.0-2.93","CL","1","pretest","true","4941306","89","../img/tt/1039tt.jpg","y",""
"null","../img/gs/1039gs.jpg","","solution","image-keyboard-response","563","1304444","0.0-2.0-3.93","CL","1","pretest","true","4941306","null","","",""
"null","../img/tt/1039tt.jpg","","mooney2","image-keyboard-response","564","1306450","0.0-2.0-4.93","CL","1","pretest","true","4941306","null","","",""
"491","<p>How strong was your <strong>aha-experience</strong>?</p>","","aha","html-keyboard-response","565","1306942","0.0-2.0-5.93","CL","1","pretest","true","4941306","49","../img/tt/1039tt.jpg","","1"
"null","<div style=""font-size:60px;""> </div>","","fixation","html-keyboard-response","566","1307145","0.0-2.0-0.94","CL","1","pretest","true","4941306","null","","",""
"null","../img/tt/1189tt.jpg","","mooney1","image-keyboard-response","567","1310150","0.0-2.0-1.94","CL","1","pretest","true","4941306","null","../img/tt/1189tt.jpg","",""
