"rt","stimulus","button_pressed","test_part","trial_type","trial_index","time_elapsed","internal_node_id","subject","session","experiment_name","complete","totalTime","key_press","currentStim","recognized","aha"
"68289","<div style='word-wrap: break-word; width: 900px'><h3>Please consider this information carefully before deciding whether to participate in this research</h3><ul style='text-align: left; font-size: .8em;'><li><b>Purpose of the research</b>: To examine how people process images.</li><li><b>What you will do in this research</b>:  Stimuli (images) will be presented on the computer and you will be asked different questions about them.</li><li><b>Time required</b>: Participation will take max 60 minutes to complete.</li><li><b>Risks</b>:  There are no anticipated risks associated with participating in this study. The effects of participating should be comparable to those you would experience from viewing a computer monitor for 60 minutes and using a mouse or keyboard.</li><li><b>Benefits</b>:  This study provides no benefits to you individually. The study provides important information about the nature of perception and learning.</li><li><b>Confidentiality</b>:  Your participation in this study will remain confidential. No personally identifiable information will be associated with your data. Your de-identified data may be shared with other researchers and used in future projects.</li><li><b>Participation and withdrawal</b>:  Your participation in this study is completely voluntary and you may refuse to participate or you may choose to withdraw at any time without penalty.</li><li><b>How to contact the researchers</b>: If you have questions or concerns about your participation or payment, or want to request a summary of research findings, please contact Sander Van de Cruys (KU Leuven), at sander.vandecruys@kuleuven.be.</li></ul><p>The nature and purpose of this research have been sufficiently explained and I agree to participate in this study.  I understand that I am free to withdraw at any time without incurring any penalty.</p><p>Please consent by clicking the button below to continue. Otherwise, please exit the study at this time.</p></div>","0","instructions","html-button-response","0","68290","0.0-0.0","CL","2","pretest","true","4407107","","","",""
"296225","<div style='word-wrap: break-word; width: 900px'><h3>Instructions</h3><p>In this experiment you will see a series of distorted images like the one below on the left. As you can see in the righthand image, the distorted images are derived from actual photographs.In what follows, you will <strong>briefly</strong> be presented with <strong>only</strong> the distorted image.</p> <div style='float: left; margin-right: 20px;'><img src='../img/018tt.jpg' height='250' width='250'></img></div><div style='float: right; margin-left: 20px;'><img src='../img/018gs.jpg' height='250' width='250'></img></div><p>To be useful for future research, we need to select those images that people can generally not solve on their own. Therefore we'll show you the distorted image and ask you to indicate (yes or no) whether you already recognized what was in the image. This is not a competition, so please respond truthfully. We don't ask or check your answer, we just want to know whether you think you recognized it. All images depict objects from one of these broad level categories: animals, inanimate objects, plants, sports, vehicles, and food. Recognizing means knowing more than these broad labels for a given image. It means knowing at least the basic level category of the main object in the image, for example when you see a parrot in the image, 'parrot' will obviously be a correct answer but also correct is 'bird', but not 'animal' (the broad level category). For the example above, 'rose' would be correct or 'flower', but not 'plant'. When soccer players are depicted, you don't recognize the image when you just see 'humans', 'outdoors', or 'sports'. Note that complete certainty about your answer is not necessary, it's enough to have a good, definite guess on the object, to say 'yes, I recognized it'.</p><p>One additional question will be asked after we've revealed the solution: You'll be asked to indicate how strong your <strong>aha-experience</strong> was. This describes the positive 'click' you sometimes experience, when the pieces of the 'puzzle' fall together and you suddenly have 'insight' in the image. It describes how good you felt the 'fit' was between the distorted image and the solution.</p><p>Press any key to start.</p></div>","","instructions","html-keyboard-response","1","364517","0.0-1.0","CL","2","pretest","true","4407107","32","","",""
"null","<div style=""font-size:60px;""> </div>","","fixation","html-keyboard-response","2","364724","0.0-2.0-0.0","CL","2","pretest","true","4407107","null","","",""
"null","../img/tt/367tt.jpg","","mooney1","image-keyboard-response","3","367730","0.0-2.0-1.0","CL","2","pretest","true","4407107","null","../img/tt/367tt.jpg","",""
"1465","<p></p>","","recognized","html-keyboard-response","4","369196","0.0-2.0-2.0","CL","2","pretest","true","4407107","89","../img/tt/367tt.jpg","y",""
"null","../img/gs/367gs.jpg","","solution","image-keyboard-response","5","371202","0.0-2.0-3.0","CL","2","pretest","true","4407107","null","","",""
"null","../img/tt/367tt.jpg","","mooney2","image-keyboard-response","6","373205","0.0-2.0-4.0","CL","2","pretest","true","4407107","null","","",""
"1521","<p>How strong was your <strong>aha-experience</strong>?</p>","","aha","html-keyboard-response","7","374726","0.0-2.0-5.0","CL","2","pretest","true","4407107","49","../img/tt/367tt.jpg","","1"
"null","<div style=""font-size:60px;""> </div>","","fixation","html-keyboard-response","8","374932","0.0-2.0-0.1","CL","2","pretest","true","4407107","null","","",""
"null","../img/tt/338tt.jpg","","mooney1","image-keyboard-response","9","377938","0.0-2.0-1.1","CL","2","pretest","true","4407107","null","../img/tt/338tt.jpg","",""
"1511","<p></p>","","recognized","html-keyboard-response","10","379450","0.0-2.0-2.1","CL","2","pretest","true","4407107","89","../img/tt/338tt.jpg","y",""
"null","../img/gs/338gs.jpg","","solution","image-keyboard-response","11","381452","0.0-2.0-3.1","CL","2","pretest","true","4407107","null","","",""
"null","../img/tt/338tt.jpg","","mooney2","image-keyboard-response","12","383454","0.0-2.0-4.1","CL","2","pretest","true","4407107","null","","",""
"1595","<p>How strong was your <strong>aha-experience</strong>?</p>","","aha","html-keyboard-response","13","385050","0.0-2.0-5.1","CL","2","pretest","true","4407107","51","../img/tt/338tt.jpg","","3"
"null","<div style=""font-size:60px;""> </div>","","fixation","html-keyboard-response","14","385253","0.0-2.0-0.2","CL","2","pretest","true","4407107","null","","",""
"null","../img/tt/340tt.jpg","","mooney1","image-keyboard-response","15","388259","0.0-2.0-1.2","CL","2","pretest","true","4407107","null","../img/tt/340tt.jpg","",""
"24389","<p></p>","","recognized","html-keyboard-response","16","412650","0.0-2.0-2.2","CL","2","pretest","true","4407107","78","../img/tt/340tt.jpg","n",""
"null","../img/gs/340gs.jpg","","solution","image-keyboard-response","17","414653","0.0-2.0-3.2","CL","2","pretest","true","4407107","null","","",""
"null","../img/tt/340tt.jpg","","mooney2","image-keyboard-response","18","416658","0.0-2.0-4.2","CL","2","pretest","true","4407107","null","","",""
"2009","<p>How strong was your <strong>aha-experience</strong>?</p>","","aha","html-keyboard-response","19","418668","0.0-2.0-5.2","CL","2","pretest","true","4407107","52","../img/tt/340tt.jpg","","4"
"null","<div style=""font-size:60px;""> </div>","","fixation","html-keyboard-response","20","418872","0.0-2.0-0.3","CL","2","pretest","true","4407107","null","","",""
"null","../img/tt/141tt.jpg","","mooney1","image-keyboard-response","21","421875","0.0-2.0-1.3","CL","2","pretest","true","4407107","null","../img/tt/141tt.jpg","",""
"454","<p></p>","","recognized","html-keyboard-response","22","422329","0.0-2.0-2.3","CL","2","pretest","true","4407107","89","../img/tt/141tt.jpg","y",""
"null","../img/gs/141gs.jpg","","solution","image-keyboard-response","23","424335","0.0-2.0-3.3","CL","2","pretest","true","4407107","null","","",""
"null","../img/tt/141tt.jpg","","mooney2","image-keyboard-response","24","426339","0.0-2.0-4.3","CL","2","pretest","true","4407107","null","","",""
"522","<p>How strong was your <strong>aha-experience</strong>?</p>","","aha","html-keyboard-response","25","426862","0.0-2.0-5.3","CL","2","pretest","true","4407107","49","../img/tt/141tt.jpg","","1"
"null","<div style=""font-size:60px;""> </div>","","fixation","html-keyboard-response","26","427064","0.0-2.0-0.4","CL","2","pretest","true","4407107","null","","",""
"null","../img/tt/1319tt.jpg","","mooney1","image-keyboard-response","27","430066","0.0-2.0-1.4","CL","2","pretest","true","4407107","null","../img/tt/1319tt.jpg","",""
"406","<p></p>","","recognized","html-keyboard-response","28","430473","0.0-2.0-2.4","CL","2","pretest","true","4407107","89","../img/tt/1319tt.jpg","y",""
"null","../img/gs/1319gs.jpg","","solution","image-keyboard-response","29","432475","0.0-2.0-3.4","CL","2","pretest","true","4407107","null","","",""
"null","../img/tt/1319tt.jpg","","mooney2","image-keyboard-response","30","434478","0.0-2.0-4.4","CL","2","pretest","true","4407107","null","","",""
"328","<p>How strong was your <strong>aha-experience</strong>?</p>","","aha","html-keyboard-response","31","434806","0.0-2.0-5.4","CL","2","pretest","true","4407107","50","../img/tt/1319tt.jpg","","2"
"null","<div style=""font-size:60px;""> </div>","","fixation","html-keyboard-response","32","435010","0.0-2.0-0.5","CL","2","pretest","true","4407107","null","","",""
"null","../img/tt/459tt.jpg","","mooney1","image-keyboard-response","33","438014","0.0-2.0-1.5","CL","2","pretest","true","4407107","null","../img/tt/459tt.jpg","",""
"763","<p></p>","","recognized","html-keyboard-response","34","438777","0.0-2.0-2.5","CL","2","pretest","true","4407107","78","../img/tt/459tt.jpg","n",""
"null","../img/gs/459gs.jpg","","solution","image-keyboard-response","35","440781","0.0-2.0-3.5","CL","2","pretest","true","4407107","null","","",""
"null","../img/tt/459tt.jpg","","mooney2","image-keyboard-response","36","442786","0.0-2.0-4.5","CL","2","pretest","true","4407107","null","","",""
"874","<p>How strong was your <strong>aha-experience</strong>?</p>","","aha","html-keyboard-response","37","443662","0.0-2.0-5.5","CL","2","pretest","true","4407107","53","../img/tt/459tt.jpg","","5"
"null","<div style=""font-size:60px;""> </div>","","fixation","html-keyboard-response","38","443866","0.0-2.0-0.6","CL","2","pretest","true","4407107","null","","",""
"null","../img/tt/184tt.jpg","","mooney1","image-keyboard-response","39","446868","0.0-2.0-1.6","CL","2","pretest","true","4407107","null","../img/tt/184tt.jpg","",""
"623","<p></p>","","recognized","html-keyboard-response","40","447492","0.0-2.0-2.6","CL","2","pretest","true","4407107","78","../img/tt/184tt.jpg","n",""
"null","../img/gs/184gs.jpg","","solution","image-keyboard-response","41","449499","0.0-2.0-3.6","CL","2","pretest","true","4407107","null","","",""
"null","../img/tt/184tt.jpg","","mooney2","image-keyboard-response","42","451505","0.0-2.0-4.6","CL","2","pretest","true","4407107","null","","",""
"1433","<p>How strong was your <strong>aha-experience</strong>?</p>","","aha","html-keyboard-response","43","452939","0.0-2.0-5.6","CL","2","pretest","true","4407107","53","../img/tt/184tt.jpg","","5"
"null","<div style=""font-size:60px;""> </div>","","fixation","html-keyboard-response","44","453142","0.0-2.0-0.7","CL","2","pretest","true","4407107","null","","",""
"null","../img/tt/1364tt.jpg","","mooney1","image-keyboard-response","45","456145","0.0-2.0-1.7","CL","2","pretest","true","4407107","null","../img/tt/1364tt.jpg","",""
"334","<p></p>","","recognized","html-keyboard-response","46","456479","0.0-2.0-2.7","CL","2","pretest","true","4407107","89","../img/tt/1364tt.jpg","y",""
"null","../img/gs/1364gs.jpg","","solution","image-keyboard-response","47","458480","0.0-2.0-3.7","CL","2","pretest","true","4407107","null","","",""
"null","../img/tt/1364tt.jpg","","mooney2","image-keyboard-response","48","460482","0.0-2.0-4.7","CL","2","pretest","true","4407107","null","","",""
"397","<p>How strong was your <strong>aha-experience</strong>?</p>","","aha","html-keyboard-response","49","460879","0.0-2.0-5.7","CL","2","pretest","true","4407107","50","../img/tt/1364tt.jpg","","2"
"null","<div style=""font-size:60px;""> </div>","","fixation","html-keyboard-response","50","461081","0.0-2.0-0.8","CL","2","pretest","true","4407107","null","","",""
"null","../img/tt/551tt.jpg","","mooney1","image-keyboard-response","51","464085","0.0-2.0-1.8","CL","2","pretest","true","4407107","null","../img/tt/551tt.jpg","",""
"339","<p></p>","","recognized","html-keyboard-response","52","464424","0.0-2.0-2.8","CL","2","pretest","true","4407107","78","../img/tt/551tt.jpg","n",""
"null","../img/gs/551gs.jpg","","solution","image-keyboard-response","53","466427","0.0-2.0-3.8","CL","2","pretest","true","4407107","null","","",""
"null","../img/tt/551tt.jpg","","mooney2","image-keyboard-response","54","468433","0.0-2.0-4.8","CL","2","pretest","true","4407107","null","","",""
"982","<p>How strong was your <strong>aha-experience</strong>?</p>","","aha","html-keyboard-response","55","469415","0.0-2.0-5.8","CL","2","pretest","true","4407107","50","../img/tt/551tt.jpg","","2"
"null","<div style=""font-size:60px;""> </div>","","fixation","html-keyboard-response","56","469620","0.0-2.0-0.9","CL","2","pretest","true","4407107","null","","",""
"null","../img/tt/260tt.jpg","","mooney1","image-keyboard-response","57","472625","0.0-2.0-1.9","CL","2","pretest","true","4407107","null","../img/tt/260tt.jpg","",""
"446","<p></p>","","recognized","html-keyboard-response","58","473072","0.0-2.0-2.9","CL","2","pretest","true","4407107","78","../img/tt/260tt.jpg","n",""
"null","../img/gs/260gs.jpg","","solution","image-keyboard-response","59","475079","0.0-2.0-3.9","CL","2","pretest","true","4407107","null","","",""
"null","../img/tt/260tt.jpg","","mooney2","image-keyboard-response","60","477084","0.0-2.0-4.9","CL","2","pretest","true","4407107","null","","",""
"1209","<p>How strong was your <strong>aha-experience</strong>?</p>","","aha","html-keyboard-response","61","478293","0.0-2.0-5.9","CL","2","pretest","true","4407107","50","../img/tt/260tt.jpg","","2"
"null","<div style=""font-size:60px;""> </div>","","fixation","html-keyboard-response","62","478494","0.0-2.0-0.10","CL","2","pretest","true","4407107","null","","",""
"null","../img/tt/382tt.jpg","","mooney1","image-keyboard-response","63","481496","0.0-2.0-1.10","CL","2","pretest","true","4407107","null","../img/tt/382tt.jpg","",""
"376","<p></p>","","recognized","html-keyboard-response","64","481873","0.0-2.0-2.10","CL","2","pretest","true","4407107","89","../img/tt/382tt.jpg","y",""
"null","../img/gs/382gs.jpg","","solution","image-keyboard-response","65","483880","0.0-2.0-3.10","CL","2","pretest","true","4407107","null","","",""
"null","../img/tt/382tt.jpg","","mooney2","image-keyboard-response","66","485885","0.0-2.0-4.10","CL","2","pretest","true","4407107","null","","",""
"712","<p>How strong was your <strong>aha-experience</strong>?</p>","","aha","html-keyboard-response","67","486598","0.0-2.0-5.10","CL","2","pretest","true","4407107","50","../img/tt/382tt.jpg","","2"
"null","<div style=""font-size:60px;""> </div>","","fixation","html-keyboard-response","68","486801","0.0-2.0-0.11","CL","2","pretest","true","4407107","null","","",""
"null","../img/tt/600tt.jpg","","mooney1","image-keyboard-response","69","489816","0.0-2.0-1.11","CL","2","pretest","true","4407107","null","../img/tt/600tt.jpg","",""
"682","<p></p>","","recognized","html-keyboard-response","70","490499","0.0-2.0-2.11","CL","2","pretest","true","4407107","78","../img/tt/600tt.jpg","n",""
"null","../img/gs/600gs.jpg","","solution","image-keyboard-response","71","492504","0.0-2.0-3.11","CL","2","pretest","true","4407107","null","","",""
"null","../img/tt/600tt.jpg","","mooney2","image-keyboard-response","72","494506","0.0-2.0-4.11","CL","2","pretest","true","4407107","null","","",""
"956","<p>How strong was your <strong>aha-experience</strong>?</p>","","aha","html-keyboard-response","73","495463","0.0-2.0-5.11","CL","2","pretest","true","4407107","50","../img/tt/600tt.jpg","","2"
"null","<div style=""font-size:60px;""> </div>","","fixation","html-keyboard-response","74","495668","0.0-2.0-0.12","CL","2","pretest","true","4407107","null","","",""
"null","../img/tt/513tt.jpg","","mooney1","image-keyboard-response","75","498673","0.0-2.0-1.12","CL","2","pretest","true","4407107","null","../img/tt/513tt.jpg","",""
"779","<p></p>","","recognized","html-keyboard-response","76","499453","0.0-2.0-2.12","CL","2","pretest","true","4407107","78","../img/tt/513tt.jpg","n",""
"null","../img/gs/513gs.jpg","","solution","image-keyboard-response","77","501460","0.0-2.0-3.12","CL","2","pretest","true","4407107","null","","",""
"null","../img/tt/513tt.jpg","","mooney2","image-keyboard-response","78","503464","0.0-2.0-4.12","CL","2","pretest","true","4407107","null","","",""
"1672","<p>How strong was your <strong>aha-experience</strong>?</p>","","aha","html-keyboard-response","79","505136","0.0-2.0-5.12","CL","2","pretest","true","4407107","51","../img/tt/513tt.jpg","","3"
"null","<div style=""font-size:60px;""> </div>","","fixation","html-keyboard-response","80","505337","0.0-2.0-0.13","CL","2","pretest","true","4407107","null","","",""
"null","../img/tt/317tt.jpg","","mooney1","image-keyboard-response","81","508342","0.0-2.0-1.13","CL","2","pretest","true","4407107","null","../img/tt/317tt.jpg","",""
"562","<p></p>","","recognized","html-keyboard-response","82","508904","0.0-2.0-2.13","CL","2","pretest","true","4407107","78","../img/tt/317tt.jpg","n",""
"null","../img/gs/317gs.jpg","","solution","image-keyboard-response","83","510907","0.0-2.0-3.13","CL","2","pretest","true","4407107","null","","",""
"null","../img/tt/317tt.jpg","","mooney2","image-keyboard-response","84","512912","0.0-2.0-4.13","CL","2","pretest","true","4407107","null","","",""
"765","<p>How strong was your <strong>aha-experience</strong>?</p>","","aha","html-keyboard-response","85","513678","0.0-2.0-5.13","CL","2","pretest","true","4407107","50","../img/tt/317tt.jpg","","2"
"null","<div style=""font-size:60px;""> </div>","","fixation","html-keyboard-response","86","513879","0.0-2.0-0.14","CL","2","pretest","true","4407107","null","","",""
"null","../img/tt/1370tt.jpg","","mooney1","image-keyboard-response","87","516884","0.0-2.0-1.14","CL","2","pretest","true","4407107","null","../img/tt/1370tt.jpg","",""
"453","<p></p>","","recognized","html-keyboard-response","88","517337","0.0-2.0-2.14","CL","2","pretest","true","4407107","89","../img/tt/1370tt.jpg","y",""
"null","../img/gs/1370gs.jpg","","solution","image-keyboard-response","89","519339","0.0-2.0-3.14","CL","2","pretest","true","4407107","null","","",""
"null","../img/tt/1370tt.jpg","","mooney2","image-keyboard-response","90","521346","0.0-2.0-4.14","CL","2","pretest","true","4407107","null","","",""
"299","<p>How strong was your <strong>aha-experience</strong>?</p>","","aha","html-keyboard-response","91","521645","0.0-2.0-5.14","CL","2","pretest","true","4407107","50","../img/tt/1370tt.jpg","","2"
"null","<div style=""font-size:60px;""> </div>","","fixation","html-keyboard-response","92","521850","0.0-2.0-0.15","CL","2","pretest","true","4407107","null","","",""
"null","../img/tt/406tt.jpg","","mooney1","image-keyboard-response","93","524855","0.0-2.0-1.15","CL","2","pretest","true","4407107","null","../img/tt/406tt.jpg","",""
"356","<p></p>","","recognized","html-keyboard-response","94","525212","0.0-2.0-2.15","CL","2","pretest","true","4407107","78","../img/tt/406tt.jpg","n",""
"null","../img/gs/406gs.jpg","","solution","image-keyboard-response","95","527214","0.0-2.0-3.15","CL","2","pretest","true","4407107","null","","",""
"null","../img/tt/406tt.jpg","","mooney2","image-keyboard-response","96","529216","0.0-2.0-4.15","CL","2","pretest","true","4407107","null","","",""
"1544","<p>How strong was your <strong>aha-experience</strong>?</p>","","aha","html-keyboard-response","97","530760","0.0-2.0-5.15","CL","2","pretest","true","4407107","51","../img/tt/406tt.jpg","","3"
"null","<div style=""font-size:60px;""> </div>","","fixation","html-keyboard-response","98","530965","0.0-2.0-0.16","CL","2","pretest","true","4407107","null","","",""
"null","../img/tt/515tt.jpg","","mooney1","image-keyboard-response","99","533968","0.0-2.0-1.16","CL","2","pretest","true","4407107","null","../img/tt/515tt.jpg","",""
"745","<p></p>","","recognized","html-keyboard-response","100","534713","0.0-2.0-2.16","CL","2","pretest","true","4407107","89","../img/tt/515tt.jpg","y",""
"null","../img/gs/515gs.jpg","","solution","image-keyboard-response","101","536716","0.0-2.0-3.16","CL","2","pretest","true","4407107","null","","",""
"null","../img/tt/515tt.jpg","","mooney2","image-keyboard-response","102","538721","0.0-2.0-4.16","CL","2","pretest","true","4407107","null","","",""
"1906","<p>How strong was your <strong>aha-experience</strong>?</p>","","aha","html-keyboard-response","103","540627","0.0-2.0-5.16","CL","2","pretest","true","4407107","51","../img/tt/515tt.jpg","","3"
"null","<div style=""font-size:60px;""> </div>","","fixation","html-keyboard-response","104","540831","0.0-2.0-0.17","CL","2","pretest","true","4407107","null","","",""
"null","../img/tt/1327tt.jpg","","mooney1","image-keyboard-response","105","543833","0.0-2.0-1.17","CL","2","pretest","true","4407107","null","../img/tt/1327tt.jpg","",""
"670","<p></p>","","recognized","html-keyboard-response","106","544503","0.0-2.0-2.17","CL","2","pretest","true","4407107","89","../img/tt/1327tt.jpg","y",""
"null","../img/gs/1327gs.jpg","","solution","image-keyboard-response","107","546509","0.0-2.0-3.17","CL","2","pretest","true","4407107","null","","",""
"null","../img/tt/1327tt.jpg","","mooney2","image-keyboard-response","108","548514","0.0-2.0-4.17","CL","2","pretest","true","4407107","null","","",""
"2883","<p>How strong was your <strong>aha-experience</strong>?</p>","","aha","html-keyboard-response","109","551397","0.0-2.0-5.17","CL","2","pretest","true","4407107","49","../img/tt/1327tt.jpg","","1"
"null","<div style=""font-size:60px;""> </div>","","fixation","html-keyboard-response","110","551601","0.0-2.0-0.18","CL","2","pretest","true","4407107","null","","",""
"null","../img/tt/336tt.jpg","","mooney1","image-keyboard-response","111","554606","0.0-2.0-1.18","CL","2","pretest","true","4407107","null","../img/tt/336tt.jpg","",""
"712","<p></p>","","recognized","html-keyboard-response","112","555318","0.0-2.0-2.18","CL","2","pretest","true","4407107","78","../img/tt/336tt.jpg","n",""
"null","../img/gs/336gs.jpg","","solution","image-keyboard-response","113","557320","0.0-2.0-3.18","CL","2","pretest","true","4407107","null","","",""
"null","../img/tt/336tt.jpg","","mooney2","image-keyboard-response","114","559323","0.0-2.0-4.18","CL","2","pretest","true","4407107","null","","",""
"2547","<p>How strong was your <strong>aha-experience</strong>?</p>","","aha","html-keyboard-response","115","561870","0.0-2.0-5.18","CL","2","pretest","true","4407107","50","../img/tt/336tt.jpg","","2"
"null","<div style=""font-size:60px;""> </div>","","fixation","html-keyboard-response","116","562071","0.0-2.0-0.19","CL","2","pretest","true","4407107","null","","",""
"null","../img/tt/388tt.jpg","","mooney1","image-keyboard-response","117","565078","0.0-2.0-1.19","CL","2","pretest","true","4407107","null","../img/tt/388tt.jpg","",""
"447","<p></p>","","recognized","html-keyboard-response","118","565526","0.0-2.0-2.19","CL","2","pretest","true","4407107","78","../img/tt/388tt.jpg","n",""
"null","../img/gs/388gs.jpg","","solution","image-keyboard-response","119","567532","0.0-2.0-3.19","CL","2","pretest","true","4407107","null","","",""
"null","../img/tt/388tt.jpg","","mooney2","image-keyboard-response","120","569536","0.0-2.0-4.19","CL","2","pretest","true","4407107","null","","",""
"332","<p>How strong was your <strong>aha-experience</strong>?</p>","","aha","html-keyboard-response","121","569868","0.0-2.0-5.19","CL","2","pretest","true","4407107","51","../img/tt/388tt.jpg","","3"
"null","<div style=""font-size:60px;""> </div>","","fixation","html-keyboard-response","122","570071","0.0-2.0-0.20","CL","2","pretest","true","4407107","null","","",""
"null","../img/tt/136tt.jpg","","mooney1","image-keyboard-response","123","573078","0.0-2.0-1.20","CL","2","pretest","true","4407107","null","../img/tt/136tt.jpg","",""
"399","<p></p>","","recognized","html-keyboard-response","124","573477","0.0-2.0-2.20","CL","2","pretest","true","4407107","78","../img/tt/136tt.jpg","n",""
"null","../img/gs/136gs.jpg","","solution","image-keyboard-response","125","575481","0.0-2.0-3.20","CL","2","pretest","true","4407107","null","","",""
"null","../img/tt/136tt.jpg","","mooney2","image-keyboard-response","126","577482","0.0-2.0-4.20","CL","2","pretest","true","4407107","null","","",""
"456","<p>How strong was your <strong>aha-experience</strong>?</p>","","aha","html-keyboard-response","127","577938","0.0-2.0-5.20","CL","2","pretest","true","4407107","51","../img/tt/136tt.jpg","","3"
"null","<div style=""font-size:60px;""> </div>","","fixation","html-keyboard-response","128","578144","0.0-2.0-0.21","CL","2","pretest","true","4407107","null","","",""
"null","../img/tt/263tt.jpg","","mooney1","image-keyboard-response","129","581150","0.0-2.0-1.21","CL","2","pretest","true","4407107","null","../img/tt/263tt.jpg","",""
"321","<p></p>","","recognized","html-keyboard-response","130","581471","0.0-2.0-2.21","CL","2","pretest","true","4407107","78","../img/tt/263tt.jpg","n",""
"null","../img/gs/263gs.jpg","","solution","image-keyboard-response","131","583474","0.0-2.0-3.21","CL","2","pretest","true","4407107","null","","",""
"null","../img/tt/263tt.jpg","","mooney2","image-keyboard-response","132","585477","0.0-2.0-4.21","CL","2","pretest","true","4407107","null","","",""
"197","<p>How strong was your <strong>aha-experience</strong>?</p>","","aha","html-keyboard-response","133","585676","0.0-2.0-5.21","CL","2","pretest","true","4407107","50","../img/tt/263tt.jpg","","2"
"null","<div style=""font-size:60px;""> </div>","","fixation","html-keyboard-response","134","585881","0.0-2.0-0.22","CL","2","pretest","true","4407107","null","","",""
"null","../img/tt/254tt.jpg","","mooney1","image-keyboard-response","135","588885","0.0-2.0-1.22","CL","2","pretest","true","4407107","null","../img/tt/254tt.jpg","",""
"451","<p></p>","","recognized","html-keyboard-response","136","589338","0.0-2.0-2.22","CL","2","pretest","true","4407107","89","../img/tt/254tt.jpg","y",""
"null","../img/gs/254gs.jpg","","solution","image-keyboard-response","137","591340","0.0-2.0-3.22","CL","2","pretest","true","4407107","null","","",""
"null","../img/tt/254tt.jpg","","mooney2","image-keyboard-response","138","593344","0.0-2.0-4.22","CL","2","pretest","true","4407107","null","","",""
"1619","<p>How strong was your <strong>aha-experience</strong>?</p>","","aha","html-keyboard-response","139","594964","0.0-2.0-5.22","CL","2","pretest","true","4407107","50","../img/tt/254tt.jpg","","2"
"null","<div style=""font-size:60px;""> </div>","","fixation","html-keyboard-response","140","595165","0.0-2.0-0.23","CL","2","pretest","true","4407107","null","","",""
"null","../img/tt/469tt.jpg","","mooney1","image-keyboard-response","141","598168","0.0-2.0-1.23","CL","2","pretest","true","4407107","null","../img/tt/469tt.jpg","",""
"701","<p></p>","","recognized","html-keyboard-response","142","598869","0.0-2.0-2.23","CL","2","pretest","true","4407107","78","../img/tt/469tt.jpg","n",""
"null","../img/gs/469gs.jpg","","solution","image-keyboard-response","143","600874","0.0-2.0-3.23","CL","2","pretest","true","4407107","null","","",""
"null","../img/tt/469tt.jpg","","mooney2","image-keyboard-response","144","602878","0.0-2.0-4.23","CL","2","pretest","true","4407107","null","","",""
"483","<p>How strong was your <strong>aha-experience</strong>?</p>","","aha","html-keyboard-response","145","603361","0.0-2.0-5.23","CL","2","pretest","true","4407107","53","../img/tt/469tt.jpg","","5"
"null","<div style=""font-size:60px;""> </div>","","fixation","html-keyboard-response","146","603566","0.0-2.0-0.24","CL","2","pretest","true","4407107","null","","",""
"null","../img/tt/429tt.jpg","","mooney1","image-keyboard-response","147","606568","0.0-2.0-1.24","CL","2","pretest","true","4407107","null","../img/tt/429tt.jpg","",""
"661","<p></p>","","recognized","html-keyboard-response","148","607230","0.0-2.0-2.24","CL","2","pretest","true","4407107","78","../img/tt/429tt.jpg","n",""
"null","../img/gs/429gs.jpg","","solution","image-keyboard-response","149","609234","0.0-2.0-3.24","CL","2","pretest","true","4407107","null","","",""
"null","../img/tt/429tt.jpg","","mooney2","image-keyboard-response","150","611237","0.0-2.0-4.24","CL","2","pretest","true","4407107","null","","",""
"1841","<p>How strong was your <strong>aha-experience</strong>?</p>","","aha","html-keyboard-response","151","613078","0.0-2.0-5.24","CL","2","pretest","true","4407107","50","../img/tt/429tt.jpg","","2"
"null","<div style=""font-size:60px;""> </div>","","fixation","html-keyboard-response","152","613284","0.0-2.0-0.25","CL","2","pretest","true","4407107","null","","",""
"null","../img/tt/408tt.jpg","","mooney1","image-keyboard-response","153","616288","0.0-2.0-1.25","CL","2","pretest","true","4407107","null","../img/tt/408tt.jpg","",""
"716","<p></p>","","recognized","html-keyboard-response","154","617005","0.0-2.0-2.25","CL","2","pretest","true","4407107","78","../img/tt/408tt.jpg","n",""
"null","../img/gs/408gs.jpg","","solution","image-keyboard-response","155","619007","0.0-2.0-3.25","CL","2","pretest","true","4407107","null","","",""
"null","../img/tt/408tt.jpg","","mooney2","image-keyboard-response","156","621010","0.0-2.0-4.25","CL","2","pretest","true","4407107","null","","",""
"1317","<p>How strong was your <strong>aha-experience</strong>?</p>","","aha","html-keyboard-response","157","622328","0.0-2.0-5.25","CL","2","pretest","true","4407107","53","../img/tt/408tt.jpg","","5"
"null","<div style=""font-size:60px;""> </div>","","fixation","html-keyboard-response","158","622531","0.0-2.0-0.26","CL","2","pretest","true","4407107","null","","",""
"null","../img/tt/174tt.jpg","","mooney1","image-keyboard-response","159","625534","0.0-2.0-1.26","CL","2","pretest","true","4407107","null","../img/tt/174tt.jpg","",""
"352","<p></p>","","recognized","html-keyboard-response","160","625886","0.0-2.0-2.26","CL","2","pretest","true","4407107","78","../img/tt/174tt.jpg","n",""
"null","../img/gs/174gs.jpg","","solution","image-keyboard-response","161","627889","0.0-2.0-3.26","CL","2","pretest","true","4407107","null","","",""
"null","../img/tt/174tt.jpg","","mooney2","image-keyboard-response","162","629891","0.0-2.0-4.26","CL","2","pretest","true","4407107","null","","",""
"485","<p>How strong was your <strong>aha-experience</strong>?</p>","","aha","html-keyboard-response","163","630377","0.0-2.0-5.26","CL","2","pretest","true","4407107","52","../img/tt/174tt.jpg","","4"
"null","<div style=""font-size:60px;""> </div>","","fixation","html-keyboard-response","164","630580","0.0-2.0-0.27","CL","2","pretest","true","4407107","null","","",""
"null","../img/tt/491tt.jpg","","mooney1","image-keyboard-response","165","633586","0.0-2.0-1.27","CL","2","pretest","true","4407107","null","../img/tt/491tt.jpg","",""
"329","<p></p>","","recognized","html-keyboard-response","166","633915","0.0-2.0-2.27","CL","2","pretest","true","4407107","78","../img/tt/491tt.jpg","n",""
"null","../img/gs/491gs.jpg","","solution","image-keyboard-response","167","635918","0.0-2.0-3.27","CL","2","pretest","true","4407107","null","","",""
"null","../img/tt/491tt.jpg","","mooney2","image-keyboard-response","168","637922","0.0-2.0-4.27","CL","2","pretest","true","4407107","null","","",""
"824","<p>How strong was your <strong>aha-experience</strong>?</p>","","aha","html-keyboard-response","169","638746","0.0-2.0-5.27","CL","2","pretest","true","4407107","51","../img/tt/491tt.jpg","","3"
"null","<div style=""font-size:60px;""> </div>","","fixation","html-keyboard-response","170","638950","0.0-2.0-0.28","CL","2","pretest","true","4407107","null","","",""
"null","../img/tt/318tt.jpg","","mooney1","image-keyboard-response","171","641953","0.0-2.0-1.28","CL","2","pretest","true","4407107","null","../img/tt/318tt.jpg","",""
"539","<p></p>","","recognized","html-keyboard-response","172","642493","0.0-2.0-2.28","CL","2","pretest","true","4407107","78","../img/tt/318tt.jpg","n",""
"null","../img/gs/318gs.jpg","","solution","image-keyboard-response","173","644500","0.0-2.0-3.28","CL","2","pretest","true","4407107","null","","",""
"null","../img/tt/318tt.jpg","","mooney2","image-keyboard-response","174","646505","0.0-2.0-4.28","CL","2","pretest","true","4407107","null","","",""
"346","<p>How strong was your <strong>aha-experience</strong>?</p>","","aha","html-keyboard-response","175","646851","0.0-2.0-5.28","CL","2","pretest","true","4407107","51","../img/tt/318tt.jpg","","3"
"null","<div style=""font-size:60px;""> </div>","","fixation","html-keyboard-response","176","647056","0.0-2.0-0.29","CL","2","pretest","true","4407107","null","","",""
"null","../img/tt/307tt.jpg","","mooney1","image-keyboard-response","177","650062","0.0-2.0-1.29","CL","2","pretest","true","4407107","null","../img/tt/307tt.jpg","",""
"776","<p></p>","","recognized","html-keyboard-response","178","650840","0.0-2.0-2.29","CL","2","pretest","true","4407107","78","../img/tt/307tt.jpg","n",""
"null","../img/gs/307gs.jpg","","solution","image-keyboard-response","179","652842","0.0-2.0-3.29","CL","2","pretest","true","4407107","null","","",""
"null","../img/tt/307tt.jpg","","mooney2","image-keyboard-response","180","654844","0.0-2.0-4.29","CL","2","pretest","true","4407107","null","","",""
"1037","<p>How strong was your <strong>aha-experience</strong>?</p>","","aha","html-keyboard-response","181","655882","0.0-2.0-5.29","CL","2","pretest","true","4407107","51","../img/tt/307tt.jpg","","3"
"null","<div style=""font-size:60px;""> </div>","","fixation","html-keyboard-response","182","656083","0.0-2.0-0.30","CL","2","pretest","true","4407107","null","","",""
"null","../img/tt/464tt.jpg","","mooney1","image-keyboard-response","183","659089","0.0-2.0-1.30","CL","2","pretest","true","4407107","null","../img/tt/464tt.jpg","",""
"271","<p></p>","","recognized","html-keyboard-response","184","659360","0.0-2.0-2.30","CL","2","pretest","true","4407107","78","../img/tt/464tt.jpg","n",""
"null","../img/gs/464gs.jpg","","solution","image-keyboard-response","185","661363","0.0-2.0-3.30","CL","2","pretest","true","4407107","null","","",""
"null","../img/tt/464tt.jpg","","mooney2","image-keyboard-response","186","663365","0.0-2.0-4.30","CL","2","pretest","true","4407107","null","","",""
"777","<p>How strong was your <strong>aha-experience</strong>?</p>","","aha","html-keyboard-response","187","664143","0.0-2.0-5.30","CL","2","pretest","true","4407107","53","../img/tt/464tt.jpg","","5"
"null","<div style=""font-size:60px;""> </div>","","fixation","html-keyboard-response","188","664345","0.0-2.0-0.31","CL","2","pretest","true","4407107","null","","",""
"null","../img/tt/334tt.jpg","","mooney1","image-keyboard-response","189","667352","0.0-2.0-1.31","CL","2","pretest","true","4407107","null","../img/tt/334tt.jpg","",""
"1231","<p></p>","","recognized","html-keyboard-response","190","668584","0.0-2.0-2.31","CL","2","pretest","true","4407107","89","../img/tt/334tt.jpg","y",""
"null","../img/gs/334gs.jpg","","solution","image-keyboard-response","191","670589","0.0-2.0-3.31","CL","2","pretest","true","4407107","null","","",""
"null","../img/tt/334tt.jpg","","mooney2","image-keyboard-response","192","672595","0.0-2.0-4.31","CL","2","pretest","true","4407107","null","","",""
"1071","<p>How strong was your <strong>aha-experience</strong>?</p>","","aha","html-keyboard-response","193","673667","0.0-2.0-5.31","CL","2","pretest","true","4407107","51","../img/tt/334tt.jpg","","3"
"null","<div style=""font-size:60px;""> </div>","","fixation","html-keyboard-response","194","673872","0.0-2.0-0.32","CL","2","pretest","true","4407107","null","","",""
"null","../img/tt/552tt.jpg","","mooney1","image-keyboard-response","195","676877","0.0-2.0-1.32","CL","2","pretest","true","4407107","null","../img/tt/552tt.jpg","",""
"325","<p></p>","","recognized","html-keyboard-response","196","677203","0.0-2.0-2.32","CL","2","pretest","true","4407107","78","../img/tt/552tt.jpg","n",""
"null","../img/gs/552gs.jpg","","solution","image-keyboard-response","197","679205","0.0-2.0-3.32","CL","2","pretest","true","4407107","null","","",""
"null","../img/tt/552tt.jpg","","mooney2","image-keyboard-response","198","681209","0.0-2.0-4.32","CL","2","pretest","true","4407107","null","","",""
"372","<p>How strong was your <strong>aha-experience</strong>?</p>","","aha","html-keyboard-response","199","681581","0.0-2.0-5.32","CL","2","pretest","true","4407107","54","../img/tt/552tt.jpg","","6"
"null","<div style=""font-size:60px;""> </div>","","fixation","html-keyboard-response","200","681785","0.0-2.0-0.33","CL","2","pretest","true","4407107","null","","",""
"null","../img/tt/569tt.jpg","","mooney1","image-keyboard-response","201","684789","0.0-2.0-1.33","CL","2","pretest","true","4407107","null","../img/tt/569tt.jpg","",""
"656","<p></p>","","recognized","html-keyboard-response","202","685445","0.0-2.0-2.33","CL","2","pretest","true","4407107","89","../img/tt/569tt.jpg","y",""
"null","../img/gs/569gs.jpg","","solution","image-keyboard-response","203","687448","0.0-2.0-3.33","CL","2","pretest","true","4407107","null","","",""
"null","../img/tt/569tt.jpg","","mooney2","image-keyboard-response","204","689452","0.0-2.0-4.33","CL","2","pretest","true","4407107","null","","",""
"2344","<p>How strong was your <strong>aha-experience</strong>?</p>","","aha","html-keyboard-response","205","691798","0.0-2.0-5.33","CL","2","pretest","true","4407107","50","../img/tt/569tt.jpg","","2"
"null","<div style=""font-size:60px;""> </div>","","fixation","html-keyboard-response","206","691999","0.0-2.0-0.34","CL","2","pretest","true","4407107","null","","",""
"null","../img/tt/496tt.jpg","","mooney1","image-keyboard-response","207","695003","0.0-2.0-1.34","CL","2","pretest","true","4407107","null","../img/tt/496tt.jpg","",""
"468","<p></p>","","recognized","html-keyboard-response","208","695471","0.0-2.0-2.34","CL","2","pretest","true","4407107","78","../img/tt/496tt.jpg","n",""
"null","../img/gs/496gs.jpg","","solution","image-keyboard-response","209","697474","0.0-2.0-3.34","CL","2","pretest","true","4407107","null","","",""
"null","../img/tt/496tt.jpg","","mooney2","image-keyboard-response","210","699479","0.0-2.0-4.34","CL","2","pretest","true","4407107","null","","",""
"1093","<p>How strong was your <strong>aha-experience</strong>?</p>","","aha","html-keyboard-response","211","700573","0.0-2.0-5.34","CL","2","pretest","true","4407107","53","../img/tt/496tt.jpg","","5"
"null","<div style=""font-size:60px;""> </div>","","fixation","html-keyboard-response","212","700774","0.0-2.0-0.35","CL","2","pretest","true","4407107","null","","",""
"null","../img/tt/155tt.jpg","","mooney1","image-keyboard-response","213","703775","0.0-2.0-1.35","CL","2","pretest","true","4407107","null","../img/tt/155tt.jpg","",""
"413","<p></p>","","recognized","html-keyboard-response","214","704189","0.0-2.0-2.35","CL","2","pretest","true","4407107","89","../img/tt/155tt.jpg","y",""
"null","../img/gs/155gs.jpg","","solution","image-keyboard-response","215","706196","0.0-2.0-3.35","CL","2","pretest","true","4407107","null","","",""
"null","../img/tt/155tt.jpg","","mooney2","image-keyboard-response","216","708200","0.0-2.0-4.35","CL","2","pretest","true","4407107","null","","",""
"1820","<p>How strong was your <strong>aha-experience</strong>?</p>","","aha","html-keyboard-response","217","710021","0.0-2.0-5.35","CL","2","pretest","true","4407107","50","../img/tt/155tt.jpg","","2"
"null","<div style=""font-size:60px;""> </div>","","fixation","html-keyboard-response","218","710225","0.0-2.0-0.36","CL","2","pretest","true","4407107","null","","",""
"null","../img/tt/430tt.jpg","","mooney1","image-keyboard-response","219","713230","0.0-2.0-1.36","CL","2","pretest","true","4407107","null","../img/tt/430tt.jpg","",""
"465","<p></p>","","recognized","html-keyboard-response","220","713696","0.0-2.0-2.36","CL","2","pretest","true","4407107","89","../img/tt/430tt.jpg","y",""
"null","../img/gs/430gs.jpg","","solution","image-keyboard-response","221","715699","0.0-2.0-3.36","CL","2","pretest","true","4407107","null","","",""
"null","../img/tt/430tt.jpg","","mooney2","image-keyboard-response","222","717703","0.0-2.0-4.36","CL","2","pretest","true","4407107","null","","",""
"1371","<p>How strong was your <strong>aha-experience</strong>?</p>","","aha","html-keyboard-response","223","719075","0.0-2.0-5.36","CL","2","pretest","true","4407107","50","../img/tt/430tt.jpg","","2"
"null","<div style=""font-size:60px;""> </div>","","fixation","html-keyboard-response","224","719278","0.0-2.0-0.37","CL","2","pretest","true","4407107","null","","",""
"null","../img/tt/275tt.jpg","","mooney1","image-keyboard-response","225","722285","0.0-2.0-1.37","CL","2","pretest","true","4407107","null","../img/tt/275tt.jpg","",""
"1355","<p></p>","","recognized","html-keyboard-response","226","723641","0.0-2.0-2.37","CL","2","pretest","true","4407107","78","../img/tt/275tt.jpg","n",""
"null","../img/gs/275gs.jpg","","solution","image-keyboard-response","227","725642","0.0-2.0-3.37","CL","2","pretest","true","4407107","null","","",""
"null","../img/tt/275tt.jpg","","mooney2","image-keyboard-response","228","727649","0.0-2.0-4.37","CL","2","pretest","true","4407107","null","","",""
"529","<p>How strong was your <strong>aha-experience</strong>?</p>","","aha","html-keyboard-response","229","728178","0.0-2.0-5.37","CL","2","pretest","true","4407107","52","../img/tt/275tt.jpg","","4"
"null","<div style=""font-size:60px;""> </div>","","fixation","html-keyboard-response","230","728384","0.0-2.0-0.38","CL","2","pretest","true","4407107","null","","",""
"null","../img/tt/333tt.jpg","","mooney1","image-keyboard-response","231","731388","0.0-2.0-1.38","CL","2","pretest","true","4407107","null","../img/tt/333tt.jpg","",""
"540","<p></p>","","recognized","html-keyboard-response","232","731929","0.0-2.0-2.38","CL","2","pretest","true","4407107","78","../img/tt/333tt.jpg","n",""
"null","../img/gs/333gs.jpg","","solution","image-keyboard-response","233","733932","0.0-2.0-3.38","CL","2","pretest","true","4407107","null","","",""
"null","../img/tt/333tt.jpg","","mooney2","image-keyboard-response","234","735934","0.0-2.0-4.38","CL","2","pretest","true","4407107","null","","",""
"1869","<p>How strong was your <strong>aha-experience</strong>?</p>","","aha","html-keyboard-response","235","737803","0.0-2.0-5.38","CL","2","pretest","true","4407107","51","../img/tt/333tt.jpg","","3"
"null","<div style=""font-size:60px;""> </div>","","fixation","html-keyboard-response","236","738005","0.0-2.0-0.39","CL","2","pretest","true","4407107","null","","",""
"null","../img/tt/299tt.jpg","","mooney1","image-keyboard-response","237","741010","0.0-2.0-1.39","CL","2","pretest","true","4407107","null","../img/tt/299tt.jpg","",""
"337","<p></p>","","recognized","html-keyboard-response","238","741347","0.0-2.0-2.39","CL","2","pretest","true","4407107","78","../img/tt/299tt.jpg","n",""
"null","../img/gs/299gs.jpg","","solution","image-keyboard-response","239","743354","0.0-2.0-3.39","CL","2","pretest","true","4407107","null","","",""
"null","../img/tt/299tt.jpg","","mooney2","image-keyboard-response","240","745355","0.0-2.0-4.39","CL","2","pretest","true","4407107","null","","",""
"472","<p>How strong was your <strong>aha-experience</strong>?</p>","","aha","html-keyboard-response","241","745828","0.0-2.0-5.39","CL","2","pretest","true","4407107","53","../img/tt/299tt.jpg","","5"
"null","<div style=""font-size:60px;""> </div>","","fixation","html-keyboard-response","242","746030","0.0-2.0-0.40","CL","2","pretest","true","4407107","null","","",""
"null","../img/tt/530tt.jpg","","mooney1","image-keyboard-response","243","749034","0.0-2.0-1.40","CL","2","pretest","true","4407107","null","../img/tt/530tt.jpg","",""
"60","<p></p>","","recognized","html-keyboard-response","244","749094","0.0-2.0-2.40","CL","2","pretest","true","4407107","78","../img/tt/530tt.jpg","n",""
"null","../img/gs/530gs.jpg","","solution","image-keyboard-response","245","751098","0.0-2.0-3.40","CL","2","pretest","true","4407107","null","","",""
"null","../img/tt/530tt.jpg","","mooney2","image-keyboard-response","246","753101","0.0-2.0-4.40","CL","2","pretest","true","4407107","null","","",""
"863","<p>How strong was your <strong>aha-experience</strong>?</p>","","aha","html-keyboard-response","247","753964","0.0-2.0-5.40","CL","2","pretest","true","4407107","51","../img/tt/530tt.jpg","","3"
"null","<div style=""font-size:60px;""> </div>","","fixation","html-keyboard-response","248","754167","0.0-2.0-0.41","CL","2","pretest","true","4407107","null","","",""
"null","../img/tt/407tt.jpg","","mooney1","image-keyboard-response","249","757169","0.0-2.0-1.41","CL","2","pretest","true","4407107","null","../img/tt/407tt.jpg","",""
"660","<p></p>","","recognized","html-keyboard-response","250","757830","0.0-2.0-2.41","CL","2","pretest","true","4407107","89","../img/tt/407tt.jpg","y",""
"null","../img/gs/407gs.jpg","","solution","image-keyboard-response","251","759833","0.0-2.0-3.41","CL","2","pretest","true","4407107","null","","",""
"null","../img/tt/407tt.jpg","","mooney2","image-keyboard-response","252","762761","0.0-2.0-4.41","CL","2","pretest","true","4407107","null","","",""
"3723","<p>How strong was your <strong>aha-experience</strong>?</p>","","aha","html-keyboard-response","253","766484","0.0-2.0-5.41","CL","2","pretest","true","4407107","50","../img/tt/407tt.jpg","","2"
"null","<div style=""font-size:60px;""> </div>","","fixation","html-keyboard-response","254","766688","0.0-2.0-0.42","CL","2","pretest","true","4407107","null","","",""
"null","../img/tt/1373tt.jpg","","mooney1","image-keyboard-response","255","769692","0.0-2.0-1.42","CL","2","pretest","true","4407107","null","../img/tt/1373tt.jpg","",""
"4124","<p></p>","","recognized","html-keyboard-response","256","773816","0.0-2.0-2.42","CL","2","pretest","true","4407107","89","../img/tt/1373tt.jpg","y",""
"null","../img/gs/1373gs.jpg","","solution","image-keyboard-response","257","775819","0.0-2.0-3.42","CL","2","pretest","true","4407107","null","","",""
"null","../img/tt/1373tt.jpg","","mooney2","image-keyboard-response","258","777824","0.0-2.0-4.42","CL","2","pretest","true","4407107","null","","",""
"1741","<p>How strong was your <strong>aha-experience</strong>?</p>","","aha","html-keyboard-response","259","779565","0.0-2.0-5.42","CL","2","pretest","true","4407107","50","../img/tt/1373tt.jpg","","2"
"null","<div style=""font-size:60px;""> </div>","","fixation","html-keyboard-response","260","779768","0.0-2.0-0.43","CL","2","pretest","true","4407107","null","","",""
"null","../img/tt/1325tt.jpg","","mooney1","image-keyboard-response","261","782774","0.0-2.0-1.43","CL","2","pretest","true","4407107","null","../img/tt/1325tt.jpg","",""
"478","<p></p>","","recognized","html-keyboard-response","262","783253","0.0-2.0-2.43","CL","2","pretest","true","4407107","89","../img/tt/1325tt.jpg","y",""
"null","../img/gs/1325gs.jpg","","solution","image-keyboard-response","263","785257","0.0-2.0-3.43","CL","2","pretest","true","4407107","null","","",""
"null","../img/tt/1325tt.jpg","","mooney2","image-keyboard-response","264","787261","0.0-2.0-4.43","CL","2","pretest","true","4407107","null","","",""
"14","<p>How strong was your <strong>aha-experience</strong>?</p>","","aha","html-keyboard-response","265","787275","0.0-2.0-5.43","CL","2","pretest","true","4407107","49","../img/tt/1325tt.jpg","","1"
"null","<div style=""font-size:60px;""> </div>","","fixation","html-keyboard-response","266","787476","0.0-2.0-0.44","CL","2","pretest","true","4407107","null","","",""
"null","../img/tt/416tt.jpg","","mooney1","image-keyboard-response","267","790483","0.0-2.0-1.44","CL","2","pretest","true","4407107","null","../img/tt/416tt.jpg","",""
"394","<p></p>","","recognized","html-keyboard-response","268","790878","0.0-2.0-2.44","CL","2","pretest","true","4407107","89","../img/tt/416tt.jpg","y",""
"null","../img/gs/416gs.jpg","","solution","image-keyboard-response","269","792883","0.0-2.0-3.44","CL","2","pretest","true","4407107","null","","",""
"null","../img/tt/416tt.jpg","","mooney2","image-keyboard-response","270","794888","0.0-2.0-4.44","CL","2","pretest","true","4407107","null","","",""
"517","<p>How strong was your <strong>aha-experience</strong>?</p>","","aha","html-keyboard-response","271","795407","0.0-2.0-5.44","CL","2","pretest","true","4407107","50","../img/tt/416tt.jpg","","2"
"null","<div style=""font-size:60px;""> </div>","","fixation","html-keyboard-response","272","795609","0.0-2.0-0.45","CL","2","pretest","true","4407107","null","","",""
"null","../img/tt/533tt.jpg","","mooney1","image-keyboard-response","273","798612","0.0-2.0-1.45","CL","2","pretest","true","4407107","null","../img/tt/533tt.jpg","",""
"878","<p></p>","","recognized","html-keyboard-response","274","799490","0.0-2.0-2.45","CL","2","pretest","true","4407107","78","../img/tt/533tt.jpg","n",""
"null","../img/gs/533gs.jpg","","solution","image-keyboard-response","275","801497","0.0-2.0-3.45","CL","2","pretest","true","4407107","null","","",""
"null","../img/tt/533tt.jpg","","mooney2","image-keyboard-response","276","803501","0.0-2.0-4.45","CL","2","pretest","true","4407107","null","","",""
"449","<p>How strong was your <strong>aha-experience</strong>?</p>","","aha","html-keyboard-response","277","803952","0.0-2.0-5.45","CL","2","pretest","true","4407107","51","../img/tt/533tt.jpg","","3"
"null","<div style=""font-size:60px;""> </div>","","fixation","html-keyboard-response","278","804157","0.0-2.0-0.46","CL","2","pretest","true","4407107","null","","",""
"null","../img/tt/204tt.jpg","","mooney1","image-keyboard-response","279","807161","0.0-2.0-1.46","CL","2","pretest","true","4407107","null","../img/tt/204tt.jpg","",""
"425","<p></p>","","recognized","html-keyboard-response","280","807586","0.0-2.0-2.46","CL","2","pretest","true","4407107","78","../img/tt/204tt.jpg","n",""
"null","../img/gs/204gs.jpg","","solution","image-keyboard-response","281","809588","0.0-2.0-3.46","CL","2","pretest","true","4407107","null","","",""
"null","../img/tt/204tt.jpg","","mooney2","image-keyboard-response","282","811593","0.0-2.0-4.46","CL","2","pretest","true","4407107","null","","",""
"396","<p>How strong was your <strong>aha-experience</strong>?</p>","","aha","html-keyboard-response","283","811991","0.0-2.0-5.46","CL","2","pretest","true","4407107","50","../img/tt/204tt.jpg","","2"
"null","<div style=""font-size:60px;""> </div>","","fixation","html-keyboard-response","284","812194","0.0-2.0-0.47","CL","2","pretest","true","4407107","null","","",""
"null","../img/tt/169tt.jpg","","mooney1","image-keyboard-response","285","815200","0.0-2.0-1.47","CL","2","pretest","true","4407107","null","../img/tt/169tt.jpg","",""
"583","<p></p>","","recognized","html-keyboard-response","286","815785","0.0-2.0-2.47","CL","2","pretest","true","4407107","78","../img/tt/169tt.jpg","n",""
"null","../img/gs/169gs.jpg","","solution","image-keyboard-response","287","817791","0.0-2.0-3.47","CL","2","pretest","true","4407107","null","","",""
"null","../img/tt/169tt.jpg","","mooney2","image-keyboard-response","288","819792","0.0-2.0-4.47","CL","2","pretest","true","4407107","null","","",""
"517","<p>How strong was your <strong>aha-experience</strong>?</p>","","aha","html-keyboard-response","289","820310","0.0-2.0-5.47","CL","2","pretest","true","4407107","50","../img/tt/169tt.jpg","","2"
"null","<div style=""font-size:60px;""> </div>","","fixation","html-keyboard-response","290","820513","0.0-2.0-0.48","CL","2","pretest","true","4407107","null","","",""
"null","../img/tt/456tt.jpg","","mooney1","image-keyboard-response","291","823516","0.0-2.0-1.48","CL","2","pretest","true","4407107","null","../img/tt/456tt.jpg","",""
"389","<p></p>","","recognized","html-keyboard-response","292","823906","0.0-2.0-2.48","CL","2","pretest","true","4407107","78","../img/tt/456tt.jpg","n",""
"null","../img/gs/456gs.jpg","","solution","image-keyboard-response","293","825912","0.0-2.0-3.48","CL","2","pretest","true","4407107","null","","",""
"null","../img/tt/456tt.jpg","","mooney2","image-keyboard-response","294","827917","0.0-2.0-4.48","CL","2","pretest","true","4407107","null","","",""
"1445","<p>How strong was your <strong>aha-experience</strong>?</p>","","aha","html-keyboard-response","295","829363","0.0-2.0-5.48","CL","2","pretest","true","4407107","52","../img/tt/456tt.jpg","","4"
"null","<div style=""font-size:60px;""> </div>","","fixation","html-keyboard-response","296","829567","0.0-2.0-0.49","CL","2","pretest","true","4407107","null","","",""
"null","../img/tt/1321tt.jpg","","mooney1","image-keyboard-response","297","832574","0.0-2.0-1.49","CL","2","pretest","true","4407107","null","../img/tt/1321tt.jpg","",""
"299","<p></p>","","recognized","html-keyboard-response","298","832874","0.0-2.0-2.49","CL","2","pretest","true","4407107","89","../img/tt/1321tt.jpg","y",""
"null","../img/gs/1321gs.jpg","","solution","image-keyboard-response","299","834879","0.0-2.0-3.49","CL","2","pretest","true","4407107","null","","",""
"null","../img/tt/1321tt.jpg","","mooney2","image-keyboard-response","300","836884","0.0-2.0-4.49","CL","2","pretest","true","4407107","null","","",""
"893","<p>How strong was your <strong>aha-experience</strong>?</p>","","aha","html-keyboard-response","301","837777","0.0-2.0-5.49","CL","2","pretest","true","4407107","49","../img/tt/1321tt.jpg","","1"
"null","<div style=""font-size:60px;""> </div>","","fixation","html-keyboard-response","302","837982","0.0-2.0-0.50","CL","2","pretest","true","4407107","null","","",""
"null","../img/tt/308tt.jpg","","mooney1","image-keyboard-response","303","840987","0.0-2.0-1.50","CL","2","pretest","true","4407107","null","../img/tt/308tt.jpg","",""
"382","<p></p>","","recognized","html-keyboard-response","304","841370","0.0-2.0-2.50","CL","2","pretest","true","4407107","78","../img/tt/308tt.jpg","n",""
"null","../img/gs/308gs.jpg","","solution","image-keyboard-response","305","843376","0.0-2.0-3.50","CL","2","pretest","true","4407107","null","","",""
"null","../img/tt/308tt.jpg","","mooney2","image-keyboard-response","306","845381","0.0-2.0-4.50","CL","2","pretest","true","4407107","null","","",""
"347","<p>How strong was your <strong>aha-experience</strong>?</p>","","aha","html-keyboard-response","307","845729","0.0-2.0-5.50","CL","2","pretest","true","4407107","52","../img/tt/308tt.jpg","","4"
"null","<div style=""font-size:60px;""> </div>","","fixation","html-keyboard-response","308","845931","0.0-2.0-0.51","CL","2","pretest","true","4407107","null","","",""
"null","../img/tt/1351tt.jpg","","mooney1","image-keyboard-response","309","848936","0.0-2.0-1.51","CL","2","pretest","true","4407107","null","../img/tt/1351tt.jpg","",""
"1364","<p></p>","","recognized","html-keyboard-response","310","850301","0.0-2.0-2.51","CL","2","pretest","true","4407107","78","../img/tt/1351tt.jpg","n",""
"null","../img/gs/1351gs.jpg","","solution","image-keyboard-response","311","852304","0.0-2.0-3.51","CL","2","pretest","true","4407107","null","","",""
"null","../img/tt/1351tt.jpg","","mooney2","image-keyboard-response","312","854310","0.0-2.0-4.51","CL","2","pretest","true","4407107","null","","",""
"1562","<p>How strong was your <strong>aha-experience</strong>?</p>","","aha","html-keyboard-response","313","855873","0.0-2.0-5.51","CL","2","pretest","true","4407107","50","../img/tt/1351tt.jpg","","2"
"null","<div style=""font-size:60px;""> </div>","","fixation","html-keyboard-response","314","856079","0.0-2.0-0.52","CL","2","pretest","true","4407107","null","","",""
"null","../img/tt/1374tt.jpg","","mooney1","image-keyboard-response","315","859082","0.0-2.0-1.52","CL","2","pretest","true","4407107","null","../img/tt/1374tt.jpg","",""
"815","<p></p>","","recognized","html-keyboard-response","316","859897","0.0-2.0-2.52","CL","2","pretest","true","4407107","89","../img/tt/1374tt.jpg","y",""
"null","../img/gs/1374gs.jpg","","solution","image-keyboard-response","317","861899","0.0-2.0-3.52","CL","2","pretest","true","4407107","null","","",""
"null","../img/tt/1374tt.jpg","","mooney2","image-keyboard-response","318","863905","0.0-2.0-4.52","CL","2","pretest","true","4407107","null","","",""
"23154","<p>How strong was your <strong>aha-experience</strong>?</p>","","aha","html-keyboard-response","319","887060","0.0-2.0-5.52","CL","2","pretest","true","4407107","50","../img/tt/1374tt.jpg","","2"
"null","<div style=""font-size:60px;""> </div>","","fixation","html-keyboard-response","320","887263","0.0-2.0-0.53","CL","2","pretest","true","4407107","null","","",""
"null","../img/tt/178tt.jpg","","mooney1","image-keyboard-response","321","890267","0.0-2.0-1.53","CL","2","pretest","true","4407107","null","../img/tt/178tt.jpg","",""
"693","<p></p>","","recognized","html-keyboard-response","322","890960","0.0-2.0-2.53","CL","2","pretest","true","4407107","78","../img/tt/178tt.jpg","n",""
"null","../img/gs/178gs.jpg","","solution","image-keyboard-response","323","892964","0.0-2.0-3.53","CL","2","pretest","true","4407107","null","","",""
"null","../img/tt/178tt.jpg","","mooney2","image-keyboard-response","324","894968","0.0-2.0-4.53","CL","2","pretest","true","4407107","null","","",""
"887","<p>How strong was your <strong>aha-experience</strong>?</p>","","aha","html-keyboard-response","325","895856","0.0-2.0-5.53","CL","2","pretest","true","4407107","50","../img/tt/178tt.jpg","","2"
"null","<div style=""font-size:60px;""> </div>","","fixation","html-keyboard-response","326","896058","0.0-2.0-0.54","CL","2","pretest","true","4407107","null","","",""
"null","../img/tt/270tt.jpg","","mooney1","image-keyboard-response","327","899065","0.0-2.0-1.54","CL","2","pretest","true","4407107","null","../img/tt/270tt.jpg","",""
"415","<p></p>","","recognized","html-keyboard-response","328","899480","0.0-2.0-2.54","CL","2","pretest","true","4407107","89","../img/tt/270tt.jpg","y",""
"null","../img/gs/270gs.jpg","","solution","image-keyboard-response","329","901484","0.0-2.0-3.54","CL","2","pretest","true","4407107","null","","",""
"null","../img/tt/270tt.jpg","","mooney2","image-keyboard-response","330","903488","0.0-2.0-4.54","CL","2","pretest","true","4407107","null","","",""
"265","<p>How strong was your <strong>aha-experience</strong>?</p>","","aha","html-keyboard-response","331","903753","0.0-2.0-5.54","CL","2","pretest","true","4407107","50","../img/tt/270tt.jpg","","2"
"null","<div style=""font-size:60px;""> </div>","","fixation","html-keyboard-response","332","903957","0.0-2.0-0.55","CL","2","pretest","true","4407107","null","","",""
"null","../img/tt/593tt.jpg","","mooney1","image-keyboard-response","333","906964","0.0-2.0-1.55","CL","2","pretest","true","4407107","null","../img/tt/593tt.jpg","",""
"347","<p></p>","","recognized","html-keyboard-response","334","907312","0.0-2.0-2.55","CL","2","pretest","true","4407107","89","../img/tt/593tt.jpg","y",""
"null","../img/gs/593gs.jpg","","solution","image-keyboard-response","335","909315","0.0-2.0-3.55","CL","2","pretest","true","4407107","null","","",""
"null","../img/tt/593tt.jpg","","mooney2","image-keyboard-response","336","911319","0.0-2.0-4.55","CL","2","pretest","true","4407107","null","","",""
"2195","<p>How strong was your <strong>aha-experience</strong>?</p>","","aha","html-keyboard-response","337","913515","0.0-2.0-5.55","CL","2","pretest","true","4407107","51","../img/tt/593tt.jpg","","3"
"null","<div style=""font-size:60px;""> </div>","","fixation","html-keyboard-response","338","913719","0.0-2.0-0.56","CL","2","pretest","true","4407107","null","","",""
"null","../img/tt/137tt.jpg","","mooney1","image-keyboard-response","339","916725","0.0-2.0-1.56","CL","2","pretest","true","4407107","null","../img/tt/137tt.jpg","",""
"1223","<p></p>","","recognized","html-keyboard-response","340","917949","0.0-2.0-2.56","CL","2","pretest","true","4407107","78","../img/tt/137tt.jpg","n",""
"null","../img/gs/137gs.jpg","","solution","image-keyboard-response","341","919953","0.0-2.0-3.56","CL","2","pretest","true","4407107","null","","",""
"null","../img/tt/137tt.jpg","","mooney2","image-keyboard-response","342","921959","0.0-2.0-4.56","CL","2","pretest","true","4407107","null","","",""
"698","<p>How strong was your <strong>aha-experience</strong>?</p>","","aha","html-keyboard-response","343","922657","0.0-2.0-5.56","CL","2","pretest","true","4407107","53","../img/tt/137tt.jpg","","5"
"null","<div style=""font-size:60px;""> </div>","","fixation","html-keyboard-response","344","922863","0.0-2.0-0.57","CL","2","pretest","true","4407107","null","","",""
"null","../img/tt/395tt.jpg","","mooney1","image-keyboard-response","345","925870","0.0-2.0-1.57","CL","2","pretest","true","4407107","null","../img/tt/395tt.jpg","",""
"484","<p></p>","","recognized","html-keyboard-response","346","926354","0.0-2.0-2.57","CL","2","pretest","true","4407107","78","../img/tt/395tt.jpg","n",""
"null","../img/gs/395gs.jpg","","solution","image-keyboard-response","347","928360","0.0-2.0-3.57","CL","2","pretest","true","4407107","null","","",""
"null","../img/tt/395tt.jpg","","mooney2","image-keyboard-response","348","930366","0.0-2.0-4.57","CL","2","pretest","true","4407107","null","","",""
"1325","<p>How strong was your <strong>aha-experience</strong>?</p>","","aha","html-keyboard-response","349","931692","0.0-2.0-5.57","CL","2","pretest","true","4407107","50","../img/tt/395tt.jpg","","2"
"null","<div style=""font-size:60px;""> </div>","","fixation","html-keyboard-response","350","931893","0.0-2.0-0.58","CL","2","pretest","true","4407107","null","","",""
"null","../img/tt/588tt.jpg","","mooney1","image-keyboard-response","351","934899","0.0-2.0-1.58","CL","2","pretest","true","4407107","null","../img/tt/588tt.jpg","",""
"362","<p></p>","","recognized","html-keyboard-response","352","935262","0.0-2.0-2.58","CL","2","pretest","true","4407107","78","../img/tt/588tt.jpg","n",""
"null","../img/gs/588gs.jpg","","solution","image-keyboard-response","353","937268","0.0-2.0-3.58","CL","2","pretest","true","4407107","null","","",""
"null","../img/tt/588tt.jpg","","mooney2","image-keyboard-response","354","939274","0.0-2.0-4.58","CL","2","pretest","true","4407107","null","","",""
"1611","<p>How strong was your <strong>aha-experience</strong>?</p>","","aha","html-keyboard-response","355","940885","0.0-2.0-5.58","CL","2","pretest","true","4407107","51","../img/tt/588tt.jpg","","3"
"null","<div style=""font-size:60px;""> </div>","","fixation","html-keyboard-response","356","941089","0.0-2.0-0.59","CL","2","pretest","true","4407107","null","","",""
"null","../img/tt/1307tt.jpg","","mooney1","image-keyboard-response","357","944095","0.0-2.0-1.59","CL","2","pretest","true","4407107","null","../img/tt/1307tt.jpg","",""
"486","<p></p>","","recognized","html-keyboard-response","358","944582","0.0-2.0-2.59","CL","2","pretest","true","4407107","78","../img/tt/1307tt.jpg","n",""
"null","../img/gs/1307gs.jpg","","solution","image-keyboard-response","359","946583","0.0-2.0-3.59","CL","2","pretest","true","4407107","null","","",""
"null","../img/tt/1307tt.jpg","","mooney2","image-keyboard-response","360","948587","0.0-2.0-4.59","CL","2","pretest","true","4407107","null","","",""
"581","<p>How strong was your <strong>aha-experience</strong>?</p>","","aha","html-keyboard-response","361","949169","0.0-2.0-5.59","CL","2","pretest","true","4407107","53","../img/tt/1307tt.jpg","","5"
"null","<div style=""font-size:60px;""> </div>","","fixation","html-keyboard-response","362","949374","0.0-2.0-0.60","CL","2","pretest","true","4407107","null","","",""
"null","../img/tt/1348tt.jpg","","mooney1","image-keyboard-response","363","952380","0.0-2.0-1.60","CL","2","pretest","true","4407107","null","../img/tt/1348tt.jpg","",""
"261","<p></p>","","recognized","html-keyboard-response","364","952642","0.0-2.0-2.60","CL","2","pretest","true","4407107","89","../img/tt/1348tt.jpg","y",""
"null","../img/gs/1348gs.jpg","","solution","image-keyboard-response","365","954647","0.0-2.0-3.60","CL","2","pretest","true","4407107","null","","",""
"null","../img/tt/1348tt.jpg","","mooney2","image-keyboard-response","366","956653","0.0-2.0-4.60","CL","2","pretest","true","4407107","null","","",""
"1584","<p>How strong was your <strong>aha-experience</strong>?</p>","","aha","html-keyboard-response","367","958238","0.0-2.0-5.60","CL","2","pretest","true","4407107","50","../img/tt/1348tt.jpg","","2"
"null","<div style=""font-size:60px;""> </div>","","fixation","html-keyboard-response","368","958444","0.0-2.0-0.61","CL","2","pretest","true","4407107","null","","",""
"null","../img/tt/1310tt.jpg","","mooney1","image-keyboard-response","369","961448","0.0-2.0-1.61","CL","2","pretest","true","4407107","null","../img/tt/1310tt.jpg","",""
"375","<p></p>","","recognized","html-keyboard-response","370","961823","0.0-2.0-2.61","CL","2","pretest","true","4407107","89","../img/tt/1310tt.jpg","y",""
"null","../img/gs/1310gs.jpg","","solution","image-keyboard-response","371","963830","0.0-2.0-3.61","CL","2","pretest","true","4407107","null","","",""
"null","../img/tt/1310tt.jpg","","mooney2","image-keyboard-response","372","965834","0.0-2.0-4.61","CL","2","pretest","true","4407107","null","","",""
"338","<p>How strong was your <strong>aha-experience</strong>?</p>","","aha","html-keyboard-response","373","966173","0.0-2.0-5.61","CL","2","pretest","true","4407107","51","../img/tt/1310tt.jpg","","3"
"null","<div style=""font-size:60px;""> </div>","","fixation","html-keyboard-response","374","966374","0.0-2.0-0.62","CL","2","pretest","true","4407107","null","","",""
"null","../img/tt/205tt.jpg","","mooney1","image-keyboard-response","375","969380","0.0-2.0-1.62","CL","2","pretest","true","4407107","null","../img/tt/205tt.jpg","",""
"362","<p></p>","","recognized","html-keyboard-response","376","969743","0.0-2.0-2.62","CL","2","pretest","true","4407107","89","../img/tt/205tt.jpg","y",""
"null","../img/gs/205gs.jpg","","solution","image-keyboard-response","377","971749","0.0-2.0-3.62","CL","2","pretest","true","4407107","null","","",""
"null","../img/tt/205tt.jpg","","mooney2","image-keyboard-response","378","973756","0.0-2.0-4.62","CL","2","pretest","true","4407107","null","","",""
"725","<p>How strong was your <strong>aha-experience</strong>?</p>","","aha","html-keyboard-response","379","974481","0.0-2.0-5.62","CL","2","pretest","true","4407107","50","../img/tt/205tt.jpg","","2"
"null","<div style=""font-size:60px;""> </div>","","fixation","html-keyboard-response","380","974686","0.0-2.0-0.63","CL","2","pretest","true","4407107","null","","",""
"null","../img/tt/435tt.jpg","","mooney1","image-keyboard-response","381","977692","0.0-2.0-1.63","CL","2","pretest","true","4407107","null","../img/tt/435tt.jpg","",""
"11146","<p></p>","","recognized","html-keyboard-response","382","988839","0.0-2.0-2.63","CL","2","pretest","true","4407107","78","../img/tt/435tt.jpg","n",""
"null","../img/gs/435gs.jpg","","solution","image-keyboard-response","383","990844","0.0-2.0-3.63","CL","2","pretest","true","4407107","null","","",""
"null","../img/tt/435tt.jpg","","mooney2","image-keyboard-response","384","992849","0.0-2.0-4.63","CL","2","pretest","true","4407107","null","","",""
"1419","<p>How strong was your <strong>aha-experience</strong>?</p>","","aha","html-keyboard-response","385","994269","0.0-2.0-5.63","CL","2","pretest","true","4407107","53","../img/tt/435tt.jpg","","5"
"null","<div style=""font-size:60px;""> </div>","","fixation","html-keyboard-response","386","994473","0.0-2.0-0.64","CL","2","pretest","true","4407107","null","","",""
"null","../img/tt/558tt.jpg","","mooney1","image-keyboard-response","387","997476","0.0-2.0-1.64","CL","2","pretest","true","4407107","null","../img/tt/558tt.jpg","",""
"702","<p></p>","","recognized","html-keyboard-response","388","998179","0.0-2.0-2.64","CL","2","pretest","true","4407107","78","../img/tt/558tt.jpg","n",""
"null","../img/gs/558gs.jpg","","solution","image-keyboard-response","389","1000186","0.0-2.0-3.64","CL","2","pretest","true","4407107","null","","",""
"null","../img/tt/558tt.jpg","","mooney2","image-keyboard-response","390","1002188","0.0-2.0-4.64","CL","2","pretest","true","4407107","null","","",""
"1322","<p>How strong was your <strong>aha-experience</strong>?</p>","","aha","html-keyboard-response","391","1003511","0.0-2.0-5.64","CL","2","pretest","true","4407107","51","../img/tt/558tt.jpg","","3"
"null","<div style=""font-size:60px;""> </div>","","fixation","html-keyboard-response","392","1003715","0.0-2.0-0.65","CL","2","pretest","true","4407107","null","","",""
"null","../img/tt/539tt.jpg","","mooney1","image-keyboard-response","393","1006718","0.0-2.0-1.65","CL","2","pretest","true","4407107","null","../img/tt/539tt.jpg","",""
"1830","<p></p>","","recognized","html-keyboard-response","394","1008548","0.0-2.0-2.65","CL","2","pretest","true","4407107","89","../img/tt/539tt.jpg","y",""
"null","../img/gs/539gs.jpg","","solution","image-keyboard-response","395","1010554","0.0-2.0-3.65","CL","2","pretest","true","4407107","null","","",""
"null","../img/tt/539tt.jpg","","mooney2","image-keyboard-response","396","1012562","0.0-2.0-4.65","CL","2","pretest","true","4407107","null","","",""
"804","<p>How strong was your <strong>aha-experience</strong>?</p>","","aha","html-keyboard-response","397","1013366","0.0-2.0-5.65","CL","2","pretest","true","4407107","49","../img/tt/539tt.jpg","","1"
"null","<div style=""font-size:60px;""> </div>","","fixation","html-keyboard-response","398","1013569","0.0-2.0-0.66","CL","2","pretest","true","4407107","null","","",""
"null","../img/tt/297tt.jpg","","mooney1","image-keyboard-response","399","1016576","0.0-2.0-1.66","CL","2","pretest","true","4407107","null","../img/tt/297tt.jpg","",""
"782","<p></p>","","recognized","html-keyboard-response","400","1017358","0.0-2.0-2.66","CL","2","pretest","true","4407107","89","../img/tt/297tt.jpg","y",""
"null","../img/gs/297gs.jpg","","solution","image-keyboard-response","401","1019362","0.0-2.0-3.66","CL","2","pretest","true","4407107","null","","",""
"null","../img/tt/297tt.jpg","","mooney2","image-keyboard-response","402","1021364","0.0-2.0-4.66","CL","2","pretest","true","4407107","null","","",""
"2000","<p>How strong was your <strong>aha-experience</strong>?</p>","","aha","html-keyboard-response","403","1023364","0.0-2.0-5.66","CL","2","pretest","true","4407107","50","../img/tt/297tt.jpg","","2"
"null","<div style=""font-size:60px;""> </div>","","fixation","html-keyboard-response","404","1023568","0.0-2.0-0.67","CL","2","pretest","true","4407107","null","","",""
"null","../img/tt/599tt.jpg","","mooney1","image-keyboard-response","405","1026570","0.0-2.0-1.67","CL","2","pretest","true","4407107","null","../img/tt/599tt.jpg","",""
"625","<p></p>","","recognized","html-keyboard-response","406","1027195","0.0-2.0-2.67","CL","2","pretest","true","4407107","78","../img/tt/599tt.jpg","n",""
"null","../img/gs/599gs.jpg","","solution","image-keyboard-response","407","1029202","0.0-2.0-3.67","CL","2","pretest","true","4407107","null","","",""
"null","../img/tt/599tt.jpg","","mooney2","image-keyboard-response","408","1031208","0.0-2.0-4.67","CL","2","pretest","true","4407107","null","","",""
"810","<p>How strong was your <strong>aha-experience</strong>?</p>","","aha","html-keyboard-response","409","1032018","0.0-2.0-5.67","CL","2","pretest","true","4407107","53","../img/tt/599tt.jpg","","5"
"null","<div style=""font-size:60px;""> </div>","","fixation","html-keyboard-response","410","1032219","0.0-2.0-0.68","CL","2","pretest","true","4407107","null","","",""
"null","../img/tt/1317tt.jpg","","mooney1","image-keyboard-response","411","1035221","0.0-2.0-1.68","CL","2","pretest","true","4407107","null","../img/tt/1317tt.jpg","",""
"2581","<p></p>","","recognized","html-keyboard-response","412","1037802","0.0-2.0-2.68","CL","2","pretest","true","4407107","89","../img/tt/1317tt.jpg","y",""
"null","../img/gs/1317gs.jpg","","solution","image-keyboard-response","413","1039807","0.0-2.0-3.68","CL","2","pretest","true","4407107","null","","",""
"null","../img/tt/1317tt.jpg","","mooney2","image-keyboard-response","414","1041808","0.0-2.0-4.68","CL","2","pretest","true","4407107","null","","",""
"3201","<p>How strong was your <strong>aha-experience</strong>?</p>","","aha","html-keyboard-response","415","1045011","0.0-2.0-5.68","CL","2","pretest","true","4407107","50","../img/tt/1317tt.jpg","","2"
"null","<div style=""font-size:60px;""> </div>","","fixation","html-keyboard-response","416","1045216","0.0-2.0-0.69","CL","2","pretest","true","4407107","null","","",""
"null","../img/tt/208tt.jpg","","mooney1","image-keyboard-response","417","1048221","0.0-2.0-1.69","CL","2","pretest","true","4407107","null","../img/tt/208tt.jpg","",""
"5799","<p></p>","","recognized","html-keyboard-response","418","1054020","0.0-2.0-2.69","CL","2","pretest","true","4407107","89","../img/tt/208tt.jpg","y",""
"null","../img/gs/208gs.jpg","","solution","image-keyboard-response","419","1056026","0.0-2.0-3.69","CL","2","pretest","true","4407107","null","","",""
"null","../img/tt/208tt.jpg","","mooney2","image-keyboard-response","420","1058032","0.0-2.0-4.69","CL","2","pretest","true","4407107","null","","",""
"833","<p>How strong was your <strong>aha-experience</strong>?</p>","","aha","html-keyboard-response","421","1058866","0.0-2.0-5.69","CL","2","pretest","true","4407107","49","../img/tt/208tt.jpg","","1"
"null","<div style=""font-size:60px;""> </div>","","fixation","html-keyboard-response","422","1059067","0.0-2.0-0.70","CL","2","pretest","true","4407107","null","","",""
"null","../img/tt/370tt.jpg","","mooney1","image-keyboard-response","423","1062073","0.0-2.0-1.70","CL","2","pretest","true","4407107","null","../img/tt/370tt.jpg","",""
"452","<p></p>","","recognized","html-keyboard-response","424","1062526","0.0-2.0-2.70","CL","2","pretest","true","4407107","78","../img/tt/370tt.jpg","n",""
"null","../img/gs/370gs.jpg","","solution","image-keyboard-response","425","1064532","0.0-2.0-3.70","CL","2","pretest","true","4407107","null","","",""
"null","../img/tt/370tt.jpg","","mooney2","image-keyboard-response","426","1066536","0.0-2.0-4.70","CL","2","pretest","true","4407107","null","","",""
"1314","<p>How strong was your <strong>aha-experience</strong>?</p>","","aha","html-keyboard-response","427","1067851","0.0-2.0-5.70","CL","2","pretest","true","4407107","51","../img/tt/370tt.jpg","","3"
"null","<div style=""font-size:60px;""> </div>","","fixation","html-keyboard-response","428","1068052","0.0-2.0-0.71","CL","2","pretest","true","4407107","null","","",""
"null","../img/tt/140tt.jpg","","mooney1","image-keyboard-response","429","1071055","0.0-2.0-1.71","CL","2","pretest","true","4407107","null","../img/tt/140tt.jpg","",""
"1467","<p></p>","","recognized","html-keyboard-response","430","1072522","0.0-2.0-2.71","CL","2","pretest","true","4407107","78","../img/tt/140tt.jpg","n",""
"null","../img/gs/140gs.jpg","","solution","image-keyboard-response","431","1074524","0.0-2.0-3.71","CL","2","pretest","true","4407107","null","","",""
"null","../img/tt/140tt.jpg","","mooney2","image-keyboard-response","432","1076528","0.0-2.0-4.71","CL","2","pretest","true","4407107","null","","",""
"385","<p>How strong was your <strong>aha-experience</strong>?</p>","","aha","html-keyboard-response","433","1076914","0.0-2.0-5.71","CL","2","pretest","true","4407107","52","../img/tt/140tt.jpg","","4"
"null","<div style=""font-size:60px;""> </div>","","fixation","html-keyboard-response","434","1077118","0.0-2.0-0.72","CL","2","pretest","true","4407107","null","","",""
"null","../img/tt/314tt.jpg","","mooney1","image-keyboard-response","435","1080121","0.0-2.0-1.72","CL","2","pretest","true","4407107","null","../img/tt/314tt.jpg","",""
"13208","<p></p>","","recognized","html-keyboard-response","436","1093329","0.0-2.0-2.72","CL","2","pretest","true","4407107","78","../img/tt/314tt.jpg","n",""
"null","../img/gs/314gs.jpg","","solution","image-keyboard-response","437","1095331","0.0-2.0-3.72","CL","2","pretest","true","4407107","null","","",""
"null","../img/tt/314tt.jpg","","mooney2","image-keyboard-response","438","1097336","0.0-2.0-4.72","CL","2","pretest","true","4407107","null","","",""
"400","<p>How strong was your <strong>aha-experience</strong>?</p>","","aha","html-keyboard-response","439","1097737","0.0-2.0-5.72","CL","2","pretest","true","4407107","50","../img/tt/314tt.jpg","","2"
"null","<div style=""font-size:60px;""> </div>","","fixation","html-keyboard-response","440","1097942","0.0-2.0-0.73","CL","2","pretest","true","4407107","null","","",""
"null","../img/tt/347tt.jpg","","mooney1","image-keyboard-response","441","1100944","0.0-2.0-1.73","CL","2","pretest","true","4407107","null","../img/tt/347tt.jpg","",""
"364","<p></p>","","recognized","html-keyboard-response","442","1101308","0.0-2.0-2.73","CL","2","pretest","true","4407107","78","../img/tt/347tt.jpg","n",""
"null","../img/gs/347gs.jpg","","solution","image-keyboard-response","443","1103311","0.0-2.0-3.73","CL","2","pretest","true","4407107","null","","",""
"null","../img/tt/347tt.jpg","","mooney2","image-keyboard-response","444","1105315","0.0-2.0-4.73","CL","2","pretest","true","4407107","null","","",""
"340","<p>How strong was your <strong>aha-experience</strong>?</p>","","aha","html-keyboard-response","445","1105655","0.0-2.0-5.73","CL","2","pretest","true","4407107","51","../img/tt/347tt.jpg","","3"
"null","<div style=""font-size:60px;""> </div>","","fixation","html-keyboard-response","446","1105861","0.0-2.0-0.74","CL","2","pretest","true","4407107","null","","",""
"null","../img/tt/550tt.jpg","","mooney1","image-keyboard-response","447","1108867","0.0-2.0-1.74","CL","2","pretest","true","4407107","null","../img/tt/550tt.jpg","",""
"260","<p></p>","","recognized","html-keyboard-response","448","1109128","0.0-2.0-2.74","CL","2","pretest","true","4407107","78","../img/tt/550tt.jpg","n",""
"null","../img/gs/550gs.jpg","","solution","image-keyboard-response","449","1111134","0.0-2.0-3.74","CL","2","pretest","true","4407107","null","","",""
"null","../img/tt/550tt.jpg","","mooney2","image-keyboard-response","450","1113138","0.0-2.0-4.74","CL","2","pretest","true","4407107","null","","",""
"1108","<p>How strong was your <strong>aha-experience</strong>?</p>","","aha","html-keyboard-response","451","1114248","0.0-2.0-5.74","CL","2","pretest","true","4407107","50","../img/tt/550tt.jpg","","2"
"null","<div style=""font-size:60px;""> </div>","","fixation","html-keyboard-response","452","1114451","0.0-2.0-0.75","CL","2","pretest","true","4407107","null","","",""
"null","../img/tt/586tt.jpg","","mooney1","image-keyboard-response","453","1117455","0.0-2.0-1.75","CL","2","pretest","true","4407107","null","../img/tt/586tt.jpg","",""
"270","<p></p>","","recognized","html-keyboard-response","454","1117725","0.0-2.0-2.75","CL","2","pretest","true","4407107","78","../img/tt/586tt.jpg","n",""
"null","../img/gs/586gs.jpg","","solution","image-keyboard-response","455","1119731","0.0-2.0-3.75","CL","2","pretest","true","4407107","null","","",""
"null","../img/tt/586tt.jpg","","mooney2","image-keyboard-response","456","1121737","0.0-2.0-4.75","CL","2","pretest","true","4407107","null","","",""
"1810","<p>How strong was your <strong>aha-experience</strong>?</p>","","aha","html-keyboard-response","457","1123548","0.0-2.0-5.75","CL","2","pretest","true","4407107","50","../img/tt/586tt.jpg","","2"
"null","<div style=""font-size:60px;""> </div>","","fixation","html-keyboard-response","458","1123749","0.0-2.0-0.76","CL","2","pretest","true","4407107","null","","",""
"null","../img/tt/144tt.jpg","","mooney1","image-keyboard-response","459","1126754","0.0-2.0-1.76","CL","2","pretest","true","4407107","null","../img/tt/144tt.jpg","",""
"283","<p></p>","","recognized","html-keyboard-response","460","1127037","0.0-2.0-2.76","CL","2","pretest","true","4407107","78","../img/tt/144tt.jpg","n",""
"null","../img/gs/144gs.jpg","","solution","image-keyboard-response","461","1129040","0.0-2.0-3.76","CL","2","pretest","true","4407107","null","","",""
"null","../img/tt/144tt.jpg","","mooney2","image-keyboard-response","462","1131044","0.0-2.0-4.76","CL","2","pretest","true","4407107","null","","",""
"440","<p>How strong was your <strong>aha-experience</strong>?</p>","","aha","html-keyboard-response","463","1131484","0.0-2.0-5.76","CL","2","pretest","true","4407107","51","../img/tt/144tt.jpg","","3"
"null","<div style=""font-size:60px;""> </div>","","fixation","html-keyboard-response","464","1131686","0.0-2.0-0.77","CL","2","pretest","true","4407107","null","","",""
"null","../img/tt/186tt.jpg","","mooney1","image-keyboard-response","465","1134691","0.0-2.0-1.77","CL","2","pretest","true","4407107","null","../img/tt/186tt.jpg","",""
"389","<p></p>","","recognized","html-keyboard-response","466","1135081","0.0-2.0-2.77","CL","2","pretest","true","4407107","78","../img/tt/186tt.jpg","n",""
"null","../img/gs/186gs.jpg","","solution","image-keyboard-response","467","1137086","0.0-2.0-3.77","CL","2","pretest","true","4407107","null","","",""
"null","../img/tt/186tt.jpg","","mooney2","image-keyboard-response","468","1139089","0.0-2.0-4.77","CL","2","pretest","true","4407107","null","","",""
"3306","<p>How strong was your <strong>aha-experience</strong>?</p>","","aha","html-keyboard-response","469","1142395","0.0-2.0-5.77","CL","2","pretest","true","4407107","51","../img/tt/186tt.jpg","","3"
"null","<div style=""font-size:60px;""> </div>","","fixation","html-keyboard-response","470","1142597","0.0-2.0-0.78","CL","2","pretest","true","4407107","null","","",""
"null","../img/tt/289tt.jpg","","mooney1","image-keyboard-response","471","1145604","0.0-2.0-1.78","CL","2","pretest","true","4407107","null","../img/tt/289tt.jpg","",""
"305","<p></p>","","recognized","html-keyboard-response","472","1145910","0.0-2.0-2.78","CL","2","pretest","true","4407107","89","../img/tt/289tt.jpg","y",""
"null","../img/gs/289gs.jpg","","solution","image-keyboard-response","473","1147912","0.0-2.0-3.78","CL","2","pretest","true","4407107","null","","",""
"null","../img/tt/289tt.jpg","","mooney2","image-keyboard-response","474","1149919","0.0-2.0-4.78","CL","2","pretest","true","4407107","null","","",""
"1238","<p>How strong was your <strong>aha-experience</strong>?</p>","","aha","html-keyboard-response","475","1151158","0.0-2.0-5.78","CL","2","pretest","true","4407107","50","../img/tt/289tt.jpg","","2"
"null","<div style=""font-size:60px;""> </div>","","fixation","html-keyboard-response","476","1151365","0.0-2.0-0.79","CL","2","pretest","true","4407107","null","","",""
"null","../img/tt/418tt.jpg","","mooney1","image-keyboard-response","477","1154369","0.0-2.0-1.79","CL","2","pretest","true","4407107","null","../img/tt/418tt.jpg","",""
"653","<p></p>","","recognized","html-keyboard-response","478","1155022","0.0-2.0-2.79","CL","2","pretest","true","4407107","78","../img/tt/418tt.jpg","n",""
"null","../img/gs/418gs.jpg","","solution","image-keyboard-response","479","1157025","0.0-2.0-3.79","CL","2","pretest","true","4407107","null","","",""
"null","../img/tt/418tt.jpg","","mooney2","image-keyboard-response","480","1159032","0.0-2.0-4.79","CL","2","pretest","true","4407107","null","","",""
"298","<p>How strong was your <strong>aha-experience</strong>?</p>","","aha","html-keyboard-response","481","1159330","0.0-2.0-5.79","CL","2","pretest","true","4407107","52","../img/tt/418tt.jpg","","4"
"null","<div style=""font-size:60px;""> </div>","","fixation","html-keyboard-response","482","1159536","0.0-2.0-0.80","CL","2","pretest","true","4407107","null","","",""
"null","../img/tt/1358tt.jpg","","mooney1","image-keyboard-response","483","1162540","0.0-2.0-1.80","CL","2","pretest","true","4407107","null","../img/tt/1358tt.jpg","",""
"302","<p></p>","","recognized","html-keyboard-response","484","1162843","0.0-2.0-2.80","CL","2","pretest","true","4407107","78","../img/tt/1358tt.jpg","n",""
"null","../img/gs/1358gs.jpg","","solution","image-keyboard-response","485","1164849","0.0-2.0-3.80","CL","2","pretest","true","4407107","null","","",""
"null","../img/tt/1358tt.jpg","","mooney2","image-keyboard-response","486","1166853","0.0-2.0-4.80","CL","2","pretest","true","4407107","null","","",""
"952","<p>How strong was your <strong>aha-experience</strong>?</p>","","aha","html-keyboard-response","487","1167806","0.0-2.0-5.80","CL","2","pretest","true","4407107","51","../img/tt/1358tt.jpg","","3"
"null","<div style=""font-size:60px;""> </div>","","fixation","html-keyboard-response","488","1168007","0.0-2.0-0.81","CL","2","pretest","true","4407107","null","","",""
"null","../img/tt/400tt.jpg","","mooney1","image-keyboard-response","489","1171010","0.0-2.0-1.81","CL","2","pretest","true","4407107","null","../img/tt/400tt.jpg","",""
"7486","<p></p>","","recognized","html-keyboard-response","490","1178497","0.0-2.0-2.81","CL","2","pretest","true","4407107","78","../img/tt/400tt.jpg","n",""
"null","../img/gs/400gs.jpg","","solution","image-keyboard-response","491","1180499","0.0-2.0-3.81","CL","2","pretest","true","4407107","null","","",""
"null","../img/tt/400tt.jpg","","mooney2","image-keyboard-response","492","1182501","0.0-2.0-4.81","CL","2","pretest","true","4407107","null","","",""
"644","<p>How strong was your <strong>aha-experience</strong>?</p>","","aha","html-keyboard-response","493","1183145","0.0-2.0-5.81","CL","2","pretest","true","4407107","52","../img/tt/400tt.jpg","","4"
"null","<div style=""font-size:60px;""> </div>","","fixation","html-keyboard-response","494","1183349","0.0-2.0-0.82","CL","2","pretest","true","4407107","null","","",""
"null","../img/tt/1305tt.jpg","","mooney1","image-keyboard-response","495","1186350","0.0-2.0-1.82","CL","2","pretest","true","4407107","null","../img/tt/1305tt.jpg","",""
"501","<p></p>","","recognized","html-keyboard-response","496","1186852","0.0-2.0-2.82","CL","2","pretest","true","4407107","89","../img/tt/1305tt.jpg","y",""
"null","../img/gs/1305gs.jpg","","solution","image-keyboard-response","497","1188859","0.0-2.0-3.82","CL","2","pretest","true","4407107","null","","",""
"null","../img/tt/1305tt.jpg","","mooney2","image-keyboard-response","498","1190863","0.0-2.0-4.82","CL","2","pretest","true","4407107","null","","",""
"394","<p>How strong was your <strong>aha-experience</strong>?</p>","","aha","html-keyboard-response","499","1191258","0.0-2.0-5.82","CL","2","pretest","true","4407107","49","../img/tt/1305tt.jpg","","1"
"null","<div style=""font-size:60px;""> </div>","","fixation","html-keyboard-response","500","1191463","0.0-2.0-0.83","CL","2","pretest","true","4407107","null","","",""
"null","../img/tt/545tt.jpg","","mooney1","image-keyboard-response","501","1194466","0.0-2.0-1.83","CL","2","pretest","true","4407107","null","../img/tt/545tt.jpg","",""
"355","<p></p>","","recognized","html-keyboard-response","502","1194822","0.0-2.0-2.83","CL","2","pretest","true","4407107","78","../img/tt/545tt.jpg","n",""
"null","../img/gs/545gs.jpg","","solution","image-keyboard-response","503","1196828","0.0-2.0-3.83","CL","2","pretest","true","4407107","null","","",""
"null","../img/tt/545tt.jpg","","mooney2","image-keyboard-response","504","1198835","0.0-2.0-4.83","CL","2","pretest","true","4407107","null","","",""
"548","<p>How strong was your <strong>aha-experience</strong>?</p>","","aha","html-keyboard-response","505","1199385","0.0-2.0-5.83","CL","2","pretest","true","4407107","50","../img/tt/545tt.jpg","","2"
"null","<div style=""font-size:60px;""> </div>","","fixation","html-keyboard-response","506","1199591","0.0-2.0-0.84","CL","2","pretest","true","4407107","null","","",""
"null","../img/tt/489tt.jpg","","mooney1","image-keyboard-response","507","1202596","0.0-2.0-1.84","CL","2","pretest","true","4407107","null","../img/tt/489tt.jpg","",""
"529","<p></p>","","recognized","html-keyboard-response","508","1203126","0.0-2.0-2.84","CL","2","pretest","true","4407107","78","../img/tt/489tt.jpg","n",""
"null","../img/gs/489gs.jpg","","solution","image-keyboard-response","509","1205130","0.0-2.0-3.84","CL","2","pretest","true","4407107","null","","",""
"null","../img/tt/489tt.jpg","","mooney2","image-keyboard-response","510","1207132","0.0-2.0-4.84","CL","2","pretest","true","4407107","null","","",""
"616","<p>How strong was your <strong>aha-experience</strong>?</p>","","aha","html-keyboard-response","511","1207748","0.0-2.0-5.84","CL","2","pretest","true","4407107","53","../img/tt/489tt.jpg","","5"
"null","<div style=""font-size:60px;""> </div>","","fixation","html-keyboard-response","512","1207949","0.0-2.0-0.85","CL","2","pretest","true","4407107","null","","",""
"null","../img/tt/480tt.jpg","","mooney1","image-keyboard-response","513","1210955","0.0-2.0-1.85","CL","2","pretest","true","4407107","null","../img/tt/480tt.jpg","",""
"370","<p></p>","","recognized","html-keyboard-response","514","1211326","0.0-2.0-2.85","CL","2","pretest","true","4407107","78","../img/tt/480tt.jpg","n",""
"null","../img/gs/480gs.jpg","","solution","image-keyboard-response","515","1213329","0.0-2.0-3.85","CL","2","pretest","true","4407107","null","","",""
"null","../img/tt/480tt.jpg","","mooney2","image-keyboard-response","516","1215331","0.0-2.0-4.85","CL","2","pretest","true","4407107","null","","",""
"300","<p>How strong was your <strong>aha-experience</strong>?</p>","","aha","html-keyboard-response","517","1215632","0.0-2.0-5.85","CL","2","pretest","true","4407107","53","../img/tt/480tt.jpg","","5"
"null","<div style=""font-size:60px;""> </div>","","fixation","html-keyboard-response","518","1215837","0.0-2.0-0.86","CL","2","pretest","true","4407107","null","","",""
"null","../img/tt/479tt.jpg","","mooney1","image-keyboard-response","519","1218844","0.0-2.0-1.86","CL","2","pretest","true","4407107","null","../img/tt/479tt.jpg","",""
"398","<p></p>","","recognized","html-keyboard-response","520","1219243","0.0-2.0-2.86","CL","2","pretest","true","4407107","89","../img/tt/479tt.jpg","y",""
"null","../img/gs/479gs.jpg","","solution","image-keyboard-response","521","1221249","0.0-2.0-3.86","CL","2","pretest","true","4407107","null","","",""
"null","../img/tt/479tt.jpg","","mooney2","image-keyboard-response","522","1223253","0.0-2.0-4.86","CL","2","pretest","true","4407107","null","","",""
"1541","<p>How strong was your <strong>aha-experience</strong>?</p>","","aha","html-keyboard-response","523","1224795","0.0-2.0-5.86","CL","2","pretest","true","4407107","50","../img/tt/479tt.jpg","","2"
"null","<div style=""font-size:60px;""> </div>","","fixation","html-keyboard-response","524","1224998","0.0-2.0-0.87","CL","2","pretest","true","4407107","null","","",""
"null","../img/tt/573tt.jpg","","mooney1","image-keyboard-response","525","1228005","0.0-2.0-1.87","CL","2","pretest","true","4407107","null","../img/tt/573tt.jpg","",""
"3131","<p></p>","","recognized","html-keyboard-response","526","1231137","0.0-2.0-2.87","CL","2","pretest","true","4407107","89","../img/tt/573tt.jpg","y",""
"null","../img/gs/573gs.jpg","","solution","image-keyboard-response","527","1233141","0.0-2.0-3.87","CL","2","pretest","true","4407107","null","","",""
"null","../img/tt/573tt.jpg","","mooney2","image-keyboard-response","528","1235143","0.0-2.0-4.87","CL","2","pretest","true","4407107","null","","",""
"665","<p>How strong was your <strong>aha-experience</strong>?</p>","","aha","html-keyboard-response","529","1235808","0.0-2.0-5.87","CL","2","pretest","true","4407107","51","../img/tt/573tt.jpg","","3"
"null","<div style=""font-size:60px;""> </div>","","fixation","html-keyboard-response","530","1236009","0.0-2.0-0.88","CL","2","pretest","true","4407107","null","","",""
"null","../img/tt/1344tt.jpg","","mooney1","image-keyboard-response","531","1239013","0.0-2.0-1.88","CL","2","pretest","true","4407107","null","../img/tt/1344tt.jpg","",""
"571","<p></p>","","recognized","html-keyboard-response","532","1239585","0.0-2.0-2.88","CL","2","pretest","true","4407107","78","../img/tt/1344tt.jpg","n",""
"null","../img/gs/1344gs.jpg","","solution","image-keyboard-response","533","1241592","0.0-2.0-3.88","CL","2","pretest","true","4407107","null","","",""
"null","../img/tt/1344tt.jpg","","mooney2","image-keyboard-response","534","1243596","0.0-2.0-4.88","CL","2","pretest","true","4407107","null","","",""
"1539","<p>How strong was your <strong>aha-experience</strong>?</p>","","aha","html-keyboard-response","535","1245137","0.0-2.0-5.88","CL","2","pretest","true","4407107","50","../img/tt/1344tt.jpg","","2"
"null","<div style=""font-size:60px;""> </div>","","fixation","html-keyboard-response","536","1245343","0.0-2.0-0.89","CL","2","pretest","true","4407107","null","","",""
"null","../img/tt/1313tt.jpg","","mooney1","image-keyboard-response","537","1248348","0.0-2.0-1.89","CL","2","pretest","true","4407107","null","../img/tt/1313tt.jpg","",""
"437","<p></p>","","recognized","html-keyboard-response","538","1248786","0.0-2.0-2.89","CL","2","pretest","true","4407107","89","../img/tt/1313tt.jpg","y",""
"null","../img/gs/1313gs.jpg","","solution","image-keyboard-response","539","1250788","0.0-2.0-3.89","CL","2","pretest","true","4407107","null","","",""
"null","../img/tt/1313tt.jpg","","mooney2","image-keyboard-response","540","1252794","0.0-2.0-4.89","CL","2","pretest","true","4407107","null","","",""
"2124","<p>How strong was your <strong>aha-experience</strong>?</p>","","aha","html-keyboard-response","541","1254919","0.0-2.0-5.89","CL","2","pretest","true","4407107","49","../img/tt/1313tt.jpg","","1"
"null","<div style=""font-size:60px;""> </div>","","fixation","html-keyboard-response","542","1255122","0.0-2.0-0.90","CL","2","pretest","true","4407107","null","","",""
"null","../img/tt/601tt.jpg","","mooney1","image-keyboard-response","543","1258127","0.0-2.0-1.90","CL","2","pretest","true","4407107","null","../img/tt/601tt.jpg","",""
"438","<p></p>","","recognized","html-keyboard-response","544","1258566","0.0-2.0-2.90","CL","2","pretest","true","4407107","78","../img/tt/601tt.jpg","n",""
"null","../img/gs/601gs.jpg","","solution","image-keyboard-response","545","1260571","0.0-2.0-3.90","CL","2","pretest","true","4407107","null","","",""
"null","../img/tt/601tt.jpg","","mooney2","image-keyboard-response","546","1262573","0.0-2.0-4.90","CL","2","pretest","true","4407107","null","","",""
"394","<p>How strong was your <strong>aha-experience</strong>?</p>","","aha","html-keyboard-response","547","1262967","0.0-2.0-5.90","CL","2","pretest","true","4407107","49","../img/tt/601tt.jpg","","1"
"null","<div style=""font-size:60px;""> </div>","","fixation","html-keyboard-response","548","1263173","0.0-2.0-0.91","CL","2","pretest","true","4407107","null","","",""
"null","../img/tt/1330tt.jpg","","mooney1","image-keyboard-response","549","1266178","0.0-2.0-1.91","CL","2","pretest","true","4407107","null","../img/tt/1330tt.jpg","",""
"1378","<p></p>","","recognized","html-keyboard-response","550","1267556","0.0-2.0-2.91","CL","2","pretest","true","4407107","78","../img/tt/1330tt.jpg","n",""
"null","../img/gs/1330gs.jpg","","solution","image-keyboard-response","551","1269563","0.0-2.0-3.91","CL","2","pretest","true","4407107","null","","",""
"null","../img/tt/1330tt.jpg","","mooney2","image-keyboard-response","552","1271567","0.0-2.0-4.91","CL","2","pretest","true","4407107","null","","",""
"1474","<p>How strong was your <strong>aha-experience</strong>?</p>","","aha","html-keyboard-response","553","1273041","0.0-2.0-5.91","CL","2","pretest","true","4407107","50","../img/tt/1330tt.jpg","","2"
"null","<div style=""font-size:60px;""> </div>","","fixation","html-keyboard-response","554","1273245","0.0-2.0-0.92","CL","2","pretest","true","4407107","null","","",""
"null","../img/tt/1311tt.jpg","","mooney1","image-keyboard-response","555","1276252","0.0-2.0-1.92","CL","2","pretest","true","4407107","null","../img/tt/1311tt.jpg","",""
"420","<p></p>","","recognized","html-keyboard-response","556","1276672","0.0-2.0-2.92","CL","2","pretest","true","4407107","89","../img/tt/1311tt.jpg","y",""
"null","../img/gs/1311gs.jpg","","solution","image-keyboard-response","557","1278674","0.0-2.0-3.92","CL","2","pretest","true","4407107","null","","",""
"null","../img/tt/1311tt.jpg","","mooney2","image-keyboard-response","558","1280676","0.0-2.0-4.92","CL","2","pretest","true","4407107","null","","",""
"2569","<p>How strong was your <strong>aha-experience</strong>?</p>","","aha","html-keyboard-response","559","1283246","0.0-2.0-5.92","CL","2","pretest","true","4407107","50","../img/tt/1311tt.jpg","","2"
"null","<div style=""font-size:60px;""> </div>","","fixation","html-keyboard-response","560","1283452","0.0-2.0-0.93","CL","2","pretest","true","4407107","null","","",""
"null","../img/tt/1340tt.jpg","","mooney1","image-keyboard-response","561","1286459","0.0-2.0-1.93","CL","2","pretest","true","4407107","null","../img/tt/1340tt.jpg","",""
"310","<p></p>","","recognized","html-keyboard-response","562","1286769","0.0-2.0-2.93","CL","2","pretest","true","4407107","89","../img/tt/1340tt.jpg","y",""
"null","../img/gs/1340gs.jpg","","solution","image-keyboard-response","563","1288771","0.0-2.0-3.93","CL","2","pretest","true","4407107","null","","",""
"null","../img/tt/1340tt.jpg","","mooney2","image-keyboard-response","564","1290777","0.0-2.0-4.93","CL","2","pretest","true","4407107","null","","",""
"1827","<p>How strong was your <strong>aha-experience</strong>?</p>","","aha","html-keyboard-response","565","1292604","0.0-2.0-5.93","CL","2","pretest","true","4407107","50","../img/tt/1340tt.jpg","","2"
"null","<div style=""font-size:60px;""> </div>","","fixation","html-keyboard-response","566","1292807","0.0-2.0-0.94","CL","2","pretest","true","4407107","null","","",""
"null","../img/tt/235tt.jpg","","mooney1","image-keyboard-response","567","1295810","0.0-2.0-1.94","CL","2","pretest","true","4407107","null","../img/tt/235tt.jpg","",""
"467","<p></p>","","recognized","html-keyboard-response","568","1296277","0.0-2.0-2.94","CL","2","pretest","true","4407107","89","../img/tt/235tt.jpg","y",""
"null","../img/gs/235gs.jpg","","solution","image-keyboard-response","569","1298731","0.0-2.0-3.94","CL","2","pretest","true","4407107","null","","",""
