"rt","stimulus","button_pressed","test_part","trial_type","trial_index","time_elapsed","internal_node_id","subject","session","experiment_name","complete","totalTime","key_press","currentStim","recognized","aha"
"72090","<div style='word-wrap: break-word; width: 900px'><h3>Please consider this information carefully before deciding whether to participate in this research</h3><ul style='text-align: left; font-size: .8em;'><li><b>Purpose of the research</b>: To examine how people process images.</li><li><b>What you will do in this research</b>:  Stimuli (images) will be presented on the computer and you will be asked different questions about them.</li><li><b>Time required</b>: Participation will take max 60 minutes to complete.</li><li><b>Risks</b>:  There are no anticipated risks associated with participating in this study. The effects of participating should be comparable to those you would experience from viewing a computer monitor for 60 minutes and using a mouse or keyboard.</li><li><b>Benefits</b>:  This study provides no benefits to you individually. The study provides important information about the nature of perception and learning.</li><li><b>Confidentiality</b>:  Your participation in this study will remain confidential. No personally identifiable information will be associated with your data. Your de-identified data may be shared with other researchers and used in future projects.</li><li><b>Participation and withdrawal</b>:  Your participation in this study is completely voluntary and you may refuse to participate or you may choose to withdraw at any time without penalty.</li><li><b>How to contact the researchers</b>: If you have questions or concerns about your participation or payment, or want to request a summary of research findings, please contact Sander Van de Cruys (KU Leuven), at sander.vandecruys@kuleuven.be.</li></ul><p>The nature and purpose of this research have been sufficiently explained and I agree to participate in this study.  I understand that I am free to withdraw at any time without incurring any penalty.</p><p>Please consent by clicking the button below to continue. Otherwise, please exit the study at this time.</p></div>","0","instructions","html-button-response","0","72093","0.0-0.0","EV","1","pretest","true","3586639","","","",""
"77500","<div style='word-wrap: break-word; width: 900px'><h3>Instructions</h3><p>In this experiment you will see a series of distorted images like the one below on the left. As you can see in the righthand image, the distorted images are derived from actual photographs.In what follows, you will <strong>briefly</strong> be presented with <strong>only</strong> the distorted image.</p> <div style='float: left; margin-right: 20px;'><img src='../img/018tt.jpg' height='250' width='250'></img></div><div style='float: right; margin-left: 20px;'><img src='../img/018gs.jpg' height='250' width='250'></img></div><p>To be useful for future research, we need to select those images that people can generally not solve on their own. Therefore we'll show you the distorted image and ask you to indicate (yes or no) whether you already recognized what was in the image. This is not a competition, so please respond truthfully. We don't ask or check your answer, we just want to know whether you think you recognized it. All images depict objects from one of these broad level categories: animals, inanimate objects, plants, sports, vehicles, and food. Recognizing means knowing more than these broad labels for a given image. It means knowing at least the basic level category of the main object in the image, for example when you see a parrot in the image, 'parrot' will obviously be a correct answer but also correct is 'bird', but not 'animal' (the broad level category). For the example above, 'rose' would be correct or 'flower', but not 'plant'. When soccer players are depicted, you don't recognize the image when you just see 'humans', 'outdoors', or 'sports'. Note that complete certainty about your answer is not necessary, it's enough to have a good, definite guess on the object, to say 'yes, I recognized it'.</p><p>One additional question will be asked after we've revealed the solution: You'll be asked to indicate how strong your <strong>aha-experience</strong> was. This describes the positive 'click' you sometimes experience, when the pieces of the 'puzzle' fall together and you suddenly have 'insight' in the image. It describes how good you felt the 'fit' was between the distorted image and the solution.</p><p>Press any key to start.</p></div>","","instructions","html-keyboard-response","1","149595","0.0-1.0","EV","1","pretest","true","3586639","32","","",""
"null","<div style=""font-size:60px;""> </div>","","fixation","html-keyboard-response","2","149796","0.0-2.0-0.0","EV","1","pretest","true","3586639","null","","",""
"null","../img/tt/1202tt.jpg","","mooney1","image-keyboard-response","3","152800","0.0-2.0-1.0","EV","1","pretest","true","3586639","null","../img/tt/1202tt.jpg","",""
"2950","<p></p>","","recognized","html-keyboard-response","4","155753","0.0-2.0-2.0","EV","1","pretest","true","3586639","78","../img/tt/1202tt.jpg","n",""
"null","../img/gs/1202gs.jpg","","solution","image-keyboard-response","5","157771","0.0-2.0-3.0","EV","1","pretest","true","3586639","null","","",""
"null","../img/tt/1202tt.jpg","","mooney2","image-keyboard-response","6","159775","0.0-2.0-4.0","EV","1","pretest","true","3586639","null","","",""
"5989","<p>How strong was your <strong>aha-experience</strong>?</p>","","aha","html-keyboard-response","7","165766","0.0-2.0-5.0","EV","1","pretest","true","3586639","53","../img/tt/1202tt.jpg","","5"
"null","<div style=""font-size:60px;""> </div>","","fixation","html-keyboard-response","8","165985","0.0-2.0-0.1","EV","1","pretest","true","3586639","null","","",""
"null","../img/tt/080tt.jpg","","mooney1","image-keyboard-response","9","168989","0.0-2.0-1.1","EV","1","pretest","true","3586639","null","../img/tt/080tt.jpg","",""
"628","<p></p>","","recognized","html-keyboard-response","10","169618","0.0-2.0-2.1","EV","1","pretest","true","3586639","78","../img/tt/080tt.jpg","n",""
"null","../img/gs/080gs.jpg","","solution","image-keyboard-response","11","171631","0.0-2.0-3.1","EV","1","pretest","true","3586639","null","","",""
"null","../img/tt/080tt.jpg","","mooney2","image-keyboard-response","12","173633","0.0-2.0-4.1","EV","1","pretest","true","3586639","null","","",""
"3050","<p>How strong was your <strong>aha-experience</strong>?</p>","","aha","html-keyboard-response","13","176686","0.0-2.0-5.1","EV","1","pretest","true","3586639","54","../img/tt/080tt.jpg","","6"
"null","<div style=""font-size:60px;""> </div>","","fixation","html-keyboard-response","14","176887","0.0-2.0-0.2","EV","1","pretest","true","3586639","null","","",""
"null","../img/tt/079tt.jpg","","mooney1","image-keyboard-response","15","179890","0.0-2.0-1.2","EV","1","pretest","true","3586639","null","../img/tt/079tt.jpg","",""
"781","<p></p>","","recognized","html-keyboard-response","16","180672","0.0-2.0-2.2","EV","1","pretest","true","3586639","89","../img/tt/079tt.jpg","y",""
"null","../img/gs/079gs.jpg","","solution","image-keyboard-response","17","182677","0.0-2.0-3.2","EV","1","pretest","true","3586639","null","","",""
"null","../img/tt/079tt.jpg","","mooney2","image-keyboard-response","18","184688","0.0-2.0-4.2","EV","1","pretest","true","3586639","null","","",""
"1941","<p>How strong was your <strong>aha-experience</strong>?</p>","","aha","html-keyboard-response","19","186631","0.0-2.0-5.2","EV","1","pretest","true","3586639","52","../img/tt/079tt.jpg","","4"
"null","<div style=""font-size:60px;""> </div>","","fixation","html-keyboard-response","20","186840","0.0-2.0-0.3","EV","1","pretest","true","3586639","null","","",""
"null","../img/tt/098tt.jpg","","mooney1","image-keyboard-response","21","189849","0.0-2.0-1.3","EV","1","pretest","true","3586639","null","../img/tt/098tt.jpg","",""
"930","<p></p>","","recognized","html-keyboard-response","22","190780","0.0-2.0-2.3","EV","1","pretest","true","3586639","78","../img/tt/098tt.jpg","n",""
"null","../img/gs/098gs.jpg","","solution","image-keyboard-response","23","192788","0.0-2.0-3.3","EV","1","pretest","true","3586639","null","","",""
"null","../img/tt/098tt.jpg","","mooney2","image-keyboard-response","24","194803","0.0-2.0-4.3","EV","1","pretest","true","3586639","null","","",""
"821","<p>How strong was your <strong>aha-experience</strong>?</p>","","aha","html-keyboard-response","25","195626","0.0-2.0-5.3","EV","1","pretest","true","3586639","51","../img/tt/098tt.jpg","","3"
"null","<div style=""font-size:60px;""> </div>","","fixation","html-keyboard-response","26","195842","0.0-2.0-0.4","EV","1","pretest","true","3586639","null","","",""
"null","../img/tt/1283tt.jpg","","mooney1","image-keyboard-response","27","198850","0.0-2.0-1.4","EV","1","pretest","true","3586639","null","../img/tt/1283tt.jpg","",""
"824","<p></p>","","recognized","html-keyboard-response","28","199676","0.0-2.0-2.4","EV","1","pretest","true","3586639","78","../img/tt/1283tt.jpg","n",""
"null","../img/gs/1283gs.jpg","","solution","image-keyboard-response","29","201693","0.0-2.0-3.4","EV","1","pretest","true","3586639","null","","",""
"null","../img/tt/1283tt.jpg","","mooney2","image-keyboard-response","30","203698","0.0-2.0-4.4","EV","1","pretest","true","3586639","null","","",""
"440","<p>How strong was your <strong>aha-experience</strong>?</p>","","aha","html-keyboard-response","31","204139","0.0-2.0-5.4","EV","1","pretest","true","3586639","53","../img/tt/1283tt.jpg","","5"
"null","<div style=""font-size:60px;""> </div>","","fixation","html-keyboard-response","32","204340","0.0-2.0-0.5","EV","1","pretest","true","3586639","null","","",""
"null","../img/tt/1088tt.jpg","","mooney1","image-keyboard-response","33","207349","0.0-2.0-1.5","EV","1","pretest","true","3586639","null","../img/tt/1088tt.jpg","",""
"437","<p></p>","","recognized","html-keyboard-response","34","207788","0.0-2.0-2.5","EV","1","pretest","true","3586639","89","../img/tt/1088tt.jpg","y",""
"null","../img/gs/1088gs.jpg","","solution","image-keyboard-response","35","209805","0.0-2.0-3.5","EV","1","pretest","true","3586639","null","","",""
"null","../img/tt/1088tt.jpg","","mooney2","image-keyboard-response","36","211810","0.0-2.0-4.5","EV","1","pretest","true","3586639","null","","",""
"369","<p>How strong was your <strong>aha-experience</strong>?</p>","","aha","html-keyboard-response","37","212180","0.0-2.0-5.5","EV","1","pretest","true","3586639","50","../img/tt/1088tt.jpg","","2"
"null","<div style=""font-size:60px;""> </div>","","fixation","html-keyboard-response","38","212383","0.0-2.0-0.6","EV","1","pretest","true","3586639","null","","",""
"null","../img/tt/1172tt.jpg","","mooney1","image-keyboard-response","39","215385","0.0-2.0-1.6","EV","1","pretest","true","3586639","null","../img/tt/1172tt.jpg","",""
"336","<p></p>","","recognized","html-keyboard-response","40","215722","0.0-2.0-2.6","EV","1","pretest","true","3586639","89","../img/tt/1172tt.jpg","y",""
"null","../img/gs/1172gs.jpg","","solution","image-keyboard-response","41","217731","0.0-2.0-3.6","EV","1","pretest","true","3586639","null","","",""
"null","../img/tt/1172tt.jpg","","mooney2","image-keyboard-response","42","219745","0.0-2.0-4.6","EV","1","pretest","true","3586639","null","","",""
"504","<p>How strong was your <strong>aha-experience</strong>?</p>","","aha","html-keyboard-response","43","220251","0.0-2.0-5.6","EV","1","pretest","true","3586639","50","../img/tt/1172tt.jpg","","2"
"null","<div style=""font-size:60px;""> </div>","","fixation","html-keyboard-response","44","220454","0.0-2.0-0.7","EV","1","pretest","true","3586639","null","","",""
"null","../img/tt/1215tt.jpg","","mooney1","image-keyboard-response","45","223456","0.0-2.0-1.7","EV","1","pretest","true","3586639","null","../img/tt/1215tt.jpg","",""
"776","<p></p>","","recognized","html-keyboard-response","46","224234","0.0-2.0-2.7","EV","1","pretest","true","3586639","78","../img/tt/1215tt.jpg","n",""
"null","../img/gs/1215gs.jpg","","solution","image-keyboard-response","47","226242","0.0-2.0-3.7","EV","1","pretest","true","3586639","null","","",""
"null","../img/tt/1215tt.jpg","","mooney2","image-keyboard-response","48","228245","0.0-2.0-4.7","EV","1","pretest","true","3586639","null","","",""
"303","<p>How strong was your <strong>aha-experience</strong>?</p>","","aha","html-keyboard-response","49","228549","0.0-2.0-5.7","EV","1","pretest","true","3586639","52","../img/tt/1215tt.jpg","","4"
"null","<div style=""font-size:60px;""> </div>","","fixation","html-keyboard-response","50","228765","0.0-2.0-0.8","EV","1","pretest","true","3586639","null","","",""
"null","../img/tt/1195tt.jpg","","mooney1","image-keyboard-response","51","231767","0.0-2.0-1.8","EV","1","pretest","true","3586639","null","../img/tt/1195tt.jpg","",""
"380","<p></p>","","recognized","html-keyboard-response","52","232149","0.0-2.0-2.8","EV","1","pretest","true","3586639","89","../img/tt/1195tt.jpg","y",""
"null","../img/gs/1195gs.jpg","","solution","image-keyboard-response","53","234151","0.0-2.0-3.8","EV","1","pretest","true","3586639","null","","",""
"null","../img/tt/1195tt.jpg","","mooney2","image-keyboard-response","54","236167","0.0-2.0-4.8","EV","1","pretest","true","3586639","null","","",""
"387","<p>How strong was your <strong>aha-experience</strong>?</p>","","aha","html-keyboard-response","55","236556","0.0-2.0-5.8","EV","1","pretest","true","3586639","51","../img/tt/1195tt.jpg","","3"
"null","<div style=""font-size:60px;""> </div>","","fixation","html-keyboard-response","56","236770","0.0-2.0-0.9","EV","1","pretest","true","3586639","null","","",""
"null","../img/tt/1074tt.jpg","","mooney1","image-keyboard-response","57","239778","0.0-2.0-1.9","EV","1","pretest","true","3586639","null","../img/tt/1074tt.jpg","",""
"302","<p></p>","","recognized","html-keyboard-response","58","240081","0.0-2.0-2.9","EV","1","pretest","true","3586639","89","../img/tt/1074tt.jpg","y",""
"null","../img/gs/1074gs.jpg","","solution","image-keyboard-response","59","242085","0.0-2.0-3.9","EV","1","pretest","true","3586639","null","","",""
"null","../img/tt/1074tt.jpg","","mooney2","image-keyboard-response","60","244088","0.0-2.0-4.9","EV","1","pretest","true","3586639","null","","",""
"349","<p>How strong was your <strong>aha-experience</strong>?</p>","","aha","html-keyboard-response","61","244438","0.0-2.0-5.9","EV","1","pretest","true","3586639","51","../img/tt/1074tt.jpg","","3"
"null","<div style=""font-size:60px;""> </div>","","fixation","html-keyboard-response","62","244641","0.0-2.0-0.10","EV","1","pretest","true","3586639","null","","",""
"null","../img/tt/096tt.jpg","","mooney1","image-keyboard-response","63","247656","0.0-2.0-1.10","EV","1","pretest","true","3586639","null","../img/tt/096tt.jpg","",""
"411","<p></p>","","recognized","html-keyboard-response","64","248069","0.0-2.0-2.10","EV","1","pretest","true","3586639","89","../img/tt/096tt.jpg","y",""
"null","../img/gs/096gs.jpg","","solution","image-keyboard-response","65","250073","0.0-2.0-3.10","EV","1","pretest","true","3586639","null","","",""
"null","../img/tt/096tt.jpg","","mooney2","image-keyboard-response","66","252075","0.0-2.0-4.10","EV","1","pretest","true","3586639","null","","",""
"349","<p>How strong was your <strong>aha-experience</strong>?</p>","","aha","html-keyboard-response","67","252426","0.0-2.0-5.10","EV","1","pretest","true","3586639","51","../img/tt/096tt.jpg","","3"
"null","<div style=""font-size:60px;""> </div>","","fixation","html-keyboard-response","68","252633","0.0-2.0-0.11","EV","1","pretest","true","3586639","null","","",""
"null","../img/tt/030tt.jpg","","mooney1","image-keyboard-response","69","255640","0.0-2.0-1.11","EV","1","pretest","true","3586639","null","../img/tt/030tt.jpg","",""
"439","<p></p>","","recognized","html-keyboard-response","70","256081","0.0-2.0-2.11","EV","1","pretest","true","3586639","89","../img/tt/030tt.jpg","y",""
"null","../img/gs/030gs.jpg","","solution","image-keyboard-response","71","258089","0.0-2.0-3.11","EV","1","pretest","true","3586639","null","","",""
"null","../img/tt/030tt.jpg","","mooney2","image-keyboard-response","72","260100","0.0-2.0-4.11","EV","1","pretest","true","3586639","null","","",""
"525","<p>How strong was your <strong>aha-experience</strong>?</p>","","aha","html-keyboard-response","73","260627","0.0-2.0-5.11","EV","1","pretest","true","3586639","50","../img/tt/030tt.jpg","","2"
"null","<div style=""font-size:60px;""> </div>","","fixation","html-keyboard-response","74","260837","0.0-2.0-0.12","EV","1","pretest","true","3586639","null","","",""
"null","../img/tt/064tt.jpg","","mooney1","image-keyboard-response","75","263839","0.0-2.0-1.12","EV","1","pretest","true","3586639","null","../img/tt/064tt.jpg","",""
"452","<p></p>","","recognized","html-keyboard-response","76","264293","0.0-2.0-2.12","EV","1","pretest","true","3586639","78","../img/tt/064tt.jpg","n",""
"null","../img/gs/064gs.jpg","","solution","image-keyboard-response","77","266302","0.0-2.0-3.12","EV","1","pretest","true","3586639","null","","",""
"null","../img/tt/064tt.jpg","","mooney2","image-keyboard-response","78","268309","0.0-2.0-4.12","EV","1","pretest","true","3586639","null","","",""
"346","<p>How strong was your <strong>aha-experience</strong>?</p>","","aha","html-keyboard-response","79","268658","0.0-2.0-5.12","EV","1","pretest","true","3586639","53","../img/tt/064tt.jpg","","5"
"null","<div style=""font-size:60px;""> </div>","","fixation","html-keyboard-response","80","268862","0.0-2.0-0.13","EV","1","pretest","true","3586639","null","","",""
"null","../img/tt/1222tt.jpg","","mooney1","image-keyboard-response","81","271865","0.0-2.0-1.13","EV","1","pretest","true","3586639","null","../img/tt/1222tt.jpg","",""
"521","<p></p>","","recognized","html-keyboard-response","82","272388","0.0-2.0-2.13","EV","1","pretest","true","3586639","89","../img/tt/1222tt.jpg","y",""
"null","../img/gs/1222gs.jpg","","solution","image-keyboard-response","83","274399","0.0-2.0-3.13","EV","1","pretest","true","3586639","null","","",""
"null","../img/tt/1222tt.jpg","","mooney2","image-keyboard-response","84","276401","0.0-2.0-4.13","EV","1","pretest","true","3586639","null","","",""
"537","<p>How strong was your <strong>aha-experience</strong>?</p>","","aha","html-keyboard-response","85","276940","0.0-2.0-5.13","EV","1","pretest","true","3586639","51","../img/tt/1222tt.jpg","","3"
"null","<div style=""font-size:60px;""> </div>","","fixation","html-keyboard-response","86","277141","0.0-2.0-0.14","EV","1","pretest","true","3586639","null","","",""
"null","../img/tt/1186tt.jpg","","mooney1","image-keyboard-response","87","280151","0.0-2.0-1.14","EV","1","pretest","true","3586639","null","../img/tt/1186tt.jpg","",""
"596","<p></p>","","recognized","html-keyboard-response","88","280750","0.0-2.0-2.14","EV","1","pretest","true","3586639","78","../img/tt/1186tt.jpg","n",""
"null","../img/gs/1186gs.jpg","","solution","image-keyboard-response","89","282761","0.0-2.0-3.14","EV","1","pretest","true","3586639","null","","",""
"null","../img/tt/1186tt.jpg","","mooney2","image-keyboard-response","90","284763","0.0-2.0-4.14","EV","1","pretest","true","3586639","null","","",""
"977","<p>How strong was your <strong>aha-experience</strong>?</p>","","aha","html-keyboard-response","91","285742","0.0-2.0-5.14","EV","1","pretest","true","3586639","52","../img/tt/1186tt.jpg","","4"
"null","<div style=""font-size:60px;""> </div>","","fixation","html-keyboard-response","92","285948","0.0-2.0-0.15","EV","1","pretest","true","3586639","null","","",""
"null","../img/tt/1076tt.jpg","","mooney1","image-keyboard-response","93","288964","0.0-2.0-1.15","EV","1","pretest","true","3586639","null","../img/tt/1076tt.jpg","",""
"430","<p></p>","","recognized","html-keyboard-response","94","289396","0.0-2.0-2.15","EV","1","pretest","true","3586639","89","../img/tt/1076tt.jpg","y",""
"null","../img/gs/1076gs.jpg","","solution","image-keyboard-response","95","291398","0.0-2.0-3.15","EV","1","pretest","true","3586639","null","","",""
"null","../img/tt/1076tt.jpg","","mooney2","image-keyboard-response","96","293400","0.0-2.0-4.15","EV","1","pretest","true","3586639","null","","",""
"508","<p>How strong was your <strong>aha-experience</strong>?</p>","","aha","html-keyboard-response","97","293910","0.0-2.0-5.15","EV","1","pretest","true","3586639","54","../img/tt/1076tt.jpg","","6"
"null","<div style=""font-size:60px;""> </div>","","fixation","html-keyboard-response","98","294112","0.0-2.0-0.16","EV","1","pretest","true","3586639","null","","",""
"null","../img/tt/1017tt.jpg","","mooney1","image-keyboard-response","99","297120","0.0-2.0-1.16","EV","1","pretest","true","3586639","null","../img/tt/1017tt.jpg","",""
"480","<p></p>","","recognized","html-keyboard-response","100","297602","0.0-2.0-2.16","EV","1","pretest","true","3586639","78","../img/tt/1017tt.jpg","n",""
"null","../img/gs/1017gs.jpg","","solution","image-keyboard-response","101","299606","0.0-2.0-3.16","EV","1","pretest","true","3586639","null","","",""
"null","../img/tt/1017tt.jpg","","mooney2","image-keyboard-response","102","301613","0.0-2.0-4.16","EV","1","pretest","true","3586639","null","","",""
"387","<p>How strong was your <strong>aha-experience</strong>?</p>","","aha","html-keyboard-response","103","302002","0.0-2.0-5.16","EV","1","pretest","true","3586639","49","../img/tt/1017tt.jpg","","1"
"null","<div style=""font-size:60px;""> </div>","","fixation","html-keyboard-response","104","302210","0.0-2.0-0.17","EV","1","pretest","true","3586639","null","","",""
"null","../img/tt/1197tt.jpg","","mooney1","image-keyboard-response","105","305215","0.0-2.0-1.17","EV","1","pretest","true","3586639","null","../img/tt/1197tt.jpg","",""
"892","<p></p>","","recognized","html-keyboard-response","106","306109","0.0-2.0-2.17","EV","1","pretest","true","3586639","89","../img/tt/1197tt.jpg","y",""
"null","../img/gs/1197gs.jpg","","solution","image-keyboard-response","107","308124","0.0-2.0-3.17","EV","1","pretest","true","3586639","null","","",""
"null","../img/tt/1197tt.jpg","","mooney2","image-keyboard-response","108","310137","0.0-2.0-4.17","EV","1","pretest","true","3586639","null","","",""
"216","<p>How strong was your <strong>aha-experience</strong>?</p>","","aha","html-keyboard-response","109","310355","0.0-2.0-5.17","EV","1","pretest","true","3586639","51","../img/tt/1197tt.jpg","","3"
"null","<div style=""font-size:60px;""> </div>","","fixation","html-keyboard-response","110","310568","0.0-2.0-0.18","EV","1","pretest","true","3586639","null","","",""
"null","../img/tt/065tt.jpg","","mooney1","image-keyboard-response","111","313581","0.0-2.0-1.18","EV","1","pretest","true","3586639","null","../img/tt/065tt.jpg","",""
"333","<p></p>","","recognized","html-keyboard-response","112","313916","0.0-2.0-2.18","EV","1","pretest","true","3586639","78","../img/tt/065tt.jpg","n",""
"null","../img/gs/065gs.jpg","","solution","image-keyboard-response","113","315933","0.0-2.0-3.18","EV","1","pretest","true","3586639","null","","",""
"null","../img/tt/065tt.jpg","","mooney2","image-keyboard-response","114","317948","0.0-2.0-4.18","EV","1","pretest","true","3586639","null","","",""
"382","<p>How strong was your <strong>aha-experience</strong>?</p>","","aha","html-keyboard-response","115","318333","0.0-2.0-5.18","EV","1","pretest","true","3586639","49","../img/tt/065tt.jpg","","1"
"null","<div style=""font-size:60px;""> </div>","","fixation","html-keyboard-response","116","318534","0.0-2.0-0.19","EV","1","pretest","true","3586639","null","","",""
"null","../img/tt/1149tt.jpg","","mooney1","image-keyboard-response","117","321542","0.0-2.0-1.19","EV","1","pretest","true","3586639","null","../img/tt/1149tt.jpg","",""
"557","<p></p>","","recognized","html-keyboard-response","118","322100","0.0-2.0-2.19","EV","1","pretest","true","3586639","89","../img/tt/1149tt.jpg","y",""
"null","../img/gs/1149gs.jpg","","solution","image-keyboard-response","119","324104","0.0-2.0-3.19","EV","1","pretest","true","3586639","null","","",""
"null","../img/tt/1149tt.jpg","","mooney2","image-keyboard-response","120","326116","0.0-2.0-4.19","EV","1","pretest","true","3586639","null","","",""
"215","<p>How strong was your <strong>aha-experience</strong>?</p>","","aha","html-keyboard-response","121","326333","0.0-2.0-5.19","EV","1","pretest","true","3586639","50","../img/tt/1149tt.jpg","","2"
"null","<div style=""font-size:60px;""> </div>","","fixation","html-keyboard-response","122","326535","0.0-2.0-0.20","EV","1","pretest","true","3586639","null","","",""
"null","../img/tt/1199tt.jpg","","mooney1","image-keyboard-response","123","329537","0.0-2.0-1.20","EV","1","pretest","true","3586639","null","../img/tt/1199tt.jpg","",""
"427","<p></p>","","recognized","html-keyboard-response","124","329966","0.0-2.0-2.20","EV","1","pretest","true","3586639","89","../img/tt/1199tt.jpg","y",""
"null","../img/gs/1199gs.jpg","","solution","image-keyboard-response","125","331973","0.0-2.0-3.20","EV","1","pretest","true","3586639","null","","",""
"null","../img/tt/1199tt.jpg","","mooney2","image-keyboard-response","126","333984","0.0-2.0-4.20","EV","1","pretest","true","3586639","null","","",""
"284","<p>How strong was your <strong>aha-experience</strong>?</p>","","aha","html-keyboard-response","127","334268","0.0-2.0-5.20","EV","1","pretest","true","3586639","51","../img/tt/1199tt.jpg","","3"
"null","<div style=""font-size:60px;""> </div>","","fixation","html-keyboard-response","128","334470","0.0-2.0-0.21","EV","1","pretest","true","3586639","null","","",""
"null","../img/tt/013tt.jpg","","mooney1","image-keyboard-response","129","337478","0.0-2.0-1.21","EV","1","pretest","true","3586639","null","../img/tt/013tt.jpg","",""
"553","<p></p>","","recognized","html-keyboard-response","130","338032","0.0-2.0-2.21","EV","1","pretest","true","3586639","78","../img/tt/013tt.jpg","n",""
"null","../img/gs/013gs.jpg","","solution","image-keyboard-response","131","340042","0.0-2.0-3.21","EV","1","pretest","true","3586639","null","","",""
"null","../img/tt/013tt.jpg","","mooney2","image-keyboard-response","132","342046","0.0-2.0-4.21","EV","1","pretest","true","3586639","null","","",""
"412","<p>How strong was your <strong>aha-experience</strong>?</p>","","aha","html-keyboard-response","133","342460","0.0-2.0-5.21","EV","1","pretest","true","3586639","55","../img/tt/013tt.jpg","","7"
"null","<div style=""font-size:60px;""> </div>","","fixation","html-keyboard-response","134","342673","0.0-2.0-0.22","EV","1","pretest","true","3586639","null","","",""
"null","../img/tt/1165tt.jpg","","mooney1","image-keyboard-response","135","345683","0.0-2.0-1.22","EV","1","pretest","true","3586639","null","../img/tt/1165tt.jpg","",""
"393","<p></p>","","recognized","html-keyboard-response","136","346078","0.0-2.0-2.22","EV","1","pretest","true","3586639","89","../img/tt/1165tt.jpg","y",""
"null","../img/gs/1165gs.jpg","","solution","image-keyboard-response","137","348089","0.0-2.0-3.22","EV","1","pretest","true","3586639","null","","",""
"null","../img/tt/1165tt.jpg","","mooney2","image-keyboard-response","138","350099","0.0-2.0-4.22","EV","1","pretest","true","3586639","null","","",""
"280","<p>How strong was your <strong>aha-experience</strong>?</p>","","aha","html-keyboard-response","139","350381","0.0-2.0-5.22","EV","1","pretest","true","3586639","51","../img/tt/1165tt.jpg","","3"
"null","<div style=""font-size:60px;""> </div>","","fixation","html-keyboard-response","140","350583","0.0-2.0-0.23","EV","1","pretest","true","3586639","null","","",""
"null","../img/tt/1026tt.jpg","","mooney1","image-keyboard-response","141","353588","0.0-2.0-1.23","EV","1","pretest","true","3586639","null","../img/tt/1026tt.jpg","",""
"403","<p></p>","","recognized","html-keyboard-response","142","353993","0.0-2.0-2.23","EV","1","pretest","true","3586639","89","../img/tt/1026tt.jpg","y",""
"null","../img/gs/1026gs.jpg","","solution","image-keyboard-response","143","355998","0.0-2.0-3.23","EV","1","pretest","true","3586639","null","","",""
"null","../img/tt/1026tt.jpg","","mooney2","image-keyboard-response","144","358011","0.0-2.0-4.23","EV","1","pretest","true","3586639","null","","",""
"351","<p>How strong was your <strong>aha-experience</strong>?</p>","","aha","html-keyboard-response","145","358363","0.0-2.0-5.23","EV","1","pretest","true","3586639","51","../img/tt/1026tt.jpg","","3"
"null","<div style=""font-size:60px;""> </div>","","fixation","html-keyboard-response","146","358565","0.0-2.0-0.24","EV","1","pretest","true","3586639","null","","",""
"null","../img/tt/1260tt.jpg","","mooney1","image-keyboard-response","147","361567","0.0-2.0-1.24","EV","1","pretest","true","3586639","null","../img/tt/1260tt.jpg","",""
"573","<p></p>","","recognized","html-keyboard-response","148","362141","0.0-2.0-2.24","EV","1","pretest","true","3586639","78","../img/tt/1260tt.jpg","n",""
"null","../img/gs/1260gs.jpg","","solution","image-keyboard-response","149","364143","0.0-2.0-3.24","EV","1","pretest","true","3586639","null","","",""
"null","../img/tt/1260tt.jpg","","mooney2","image-keyboard-response","150","366151","0.0-2.0-4.24","EV","1","pretest","true","3586639","null","","",""
"408","<p>How strong was your <strong>aha-experience</strong>?</p>","","aha","html-keyboard-response","151","366562","0.0-2.0-5.24","EV","1","pretest","true","3586639","52","../img/tt/1260tt.jpg","","4"
"null","<div style=""font-size:60px;""> </div>","","fixation","html-keyboard-response","152","366777","0.0-2.0-0.25","EV","1","pretest","true","3586639","null","","",""
"null","../img/tt/089tt.jpg","","mooney1","image-keyboard-response","153","369792","0.0-2.0-1.25","EV","1","pretest","true","3586639","null","../img/tt/089tt.jpg","",""
"425","<p></p>","","recognized","html-keyboard-response","154","370218","0.0-2.0-2.25","EV","1","pretest","true","3586639","78","../img/tt/089tt.jpg","n",""
"null","../img/gs/089gs.jpg","","solution","image-keyboard-response","155","372230","0.0-2.0-3.25","EV","1","pretest","true","3586639","null","","",""
"null","../img/tt/089tt.jpg","","mooney2","image-keyboard-response","156","374237","0.0-2.0-4.25","EV","1","pretest","true","3586639","null","","",""
"396","<p>How strong was your <strong>aha-experience</strong>?</p>","","aha","html-keyboard-response","157","374636","0.0-2.0-5.25","EV","1","pretest","true","3586639","49","../img/tt/089tt.jpg","","1"
"null","<div style=""font-size:60px;""> </div>","","fixation","html-keyboard-response","158","374839","0.0-2.0-0.26","EV","1","pretest","true","3586639","null","","",""
"null","../img/tt/1170tt.jpg","","mooney1","image-keyboard-response","159","377843","0.0-2.0-1.26","EV","1","pretest","true","3586639","null","../img/tt/1170tt.jpg","",""
"436","<p></p>","","recognized","html-keyboard-response","160","378280","0.0-2.0-2.26","EV","1","pretest","true","3586639","89","../img/tt/1170tt.jpg","y",""
"null","../img/gs/1170gs.jpg","","solution","image-keyboard-response","161","380297","0.0-2.0-3.26","EV","1","pretest","true","3586639","null","","",""
"null","../img/tt/1170tt.jpg","","mooney2","image-keyboard-response","162","382299","0.0-2.0-4.26","EV","1","pretest","true","3586639","null","","",""
"270","<p>How strong was your <strong>aha-experience</strong>?</p>","","aha","html-keyboard-response","163","382572","0.0-2.0-5.26","EV","1","pretest","true","3586639","50","../img/tt/1170tt.jpg","","2"
"null","<div style=""font-size:60px;""> </div>","","fixation","html-keyboard-response","164","382779","0.0-2.0-0.27","EV","1","pretest","true","3586639","null","","",""
"null","../img/tt/1228tt.jpg","","mooney1","image-keyboard-response","165","385792","0.0-2.0-1.27","EV","1","pretest","true","3586639","null","../img/tt/1228tt.jpg","",""
"712","<p></p>","","recognized","html-keyboard-response","166","386506","0.0-2.0-2.27","EV","1","pretest","true","3586639","78","../img/tt/1228tt.jpg","n",""
"null","../img/gs/1228gs.jpg","","solution","image-keyboard-response","167","388515","0.0-2.0-3.27","EV","1","pretest","true","3586639","null","","",""
"null","../img/tt/1228tt.jpg","","mooney2","image-keyboard-response","168","390525","0.0-2.0-4.27","EV","1","pretest","true","3586639","null","","",""
"263","<p>How strong was your <strong>aha-experience</strong>?</p>","","aha","html-keyboard-response","169","390790","0.0-2.0-5.27","EV","1","pretest","true","3586639","49","../img/tt/1228tt.jpg","","1"
"null","<div style=""font-size:60px;""> </div>","","fixation","html-keyboard-response","170","390997","0.0-2.0-0.28","EV","1","pretest","true","3586639","null","","",""
"null","../img/tt/1184tt.jpg","","mooney1","image-keyboard-response","171","394000","0.0-2.0-1.28","EV","1","pretest","true","3586639","null","../img/tt/1184tt.jpg","",""
"371","<p></p>","","recognized","html-keyboard-response","172","394373","0.0-2.0-2.28","EV","1","pretest","true","3586639","78","../img/tt/1184tt.jpg","n",""
"null","../img/gs/1184gs.jpg","","solution","image-keyboard-response","173","396386","0.0-2.0-3.28","EV","1","pretest","true","3586639","null","","",""
"null","../img/tt/1184tt.jpg","","mooney2","image-keyboard-response","174","398402","0.0-2.0-4.28","EV","1","pretest","true","3586639","null","","",""
"369","<p>How strong was your <strong>aha-experience</strong>?</p>","","aha","html-keyboard-response","175","398774","0.0-2.0-5.28","EV","1","pretest","true","3586639","53","../img/tt/1184tt.jpg","","5"
"null","<div style=""font-size:60px;""> </div>","","fixation","html-keyboard-response","176","398990","0.0-2.0-0.29","EV","1","pretest","true","3586639","null","","",""
"null","../img/tt/1079tt.jpg","","mooney1","image-keyboard-response","177","401993","0.0-2.0-1.29","EV","1","pretest","true","3586639","null","../img/tt/1079tt.jpg","",""
"383","<p></p>","","recognized","html-keyboard-response","178","402378","0.0-2.0-2.29","EV","1","pretest","true","3586639","89","../img/tt/1079tt.jpg","y",""
"null","../img/gs/1079gs.jpg","","solution","image-keyboard-response","179","404387","0.0-2.0-3.29","EV","1","pretest","true","3586639","null","","",""
"null","../img/tt/1079tt.jpg","","mooney2","image-keyboard-response","180","406400","0.0-2.0-4.29","EV","1","pretest","true","3586639","null","","",""
"334","<p>How strong was your <strong>aha-experience</strong>?</p>","","aha","html-keyboard-response","181","406734","0.0-2.0-5.29","EV","1","pretest","true","3586639","51","../img/tt/1079tt.jpg","","3"
"null","<div style=""font-size:60px;""> </div>","","fixation","html-keyboard-response","182","406946","0.0-2.0-0.30","EV","1","pretest","true","3586639","null","","",""
"null","../img/tt/062tt.jpg","","mooney1","image-keyboard-response","183","409964","0.0-2.0-1.30","EV","1","pretest","true","3586639","null","../img/tt/062tt.jpg","",""
"314","<p></p>","","recognized","html-keyboard-response","184","410281","0.0-2.0-2.30","EV","1","pretest","true","3586639","78","../img/tt/062tt.jpg","n",""
"null","../img/gs/062gs.jpg","","solution","image-keyboard-response","185","412284","0.0-2.0-3.30","EV","1","pretest","true","3586639","null","","",""
"null","../img/tt/062tt.jpg","","mooney2","image-keyboard-response","186","414293","0.0-2.0-4.30","EV","1","pretest","true","3586639","null","","",""
"258","<p>How strong was your <strong>aha-experience</strong>?</p>","","aha","html-keyboard-response","187","414552","0.0-2.0-5.30","EV","1","pretest","true","3586639","49","../img/tt/062tt.jpg","","1"
"null","<div style=""font-size:60px;""> </div>","","fixation","html-keyboard-response","188","414765","0.0-2.0-0.31","EV","1","pretest","true","3586639","null","","",""
"null","../img/tt/1208tt.jpg","","mooney1","image-keyboard-response","189","417776","0.0-2.0-1.31","EV","1","pretest","true","3586639","null","../img/tt/1208tt.jpg","",""
"377","<p></p>","","recognized","html-keyboard-response","190","418154","0.0-2.0-2.31","EV","1","pretest","true","3586639","89","../img/tt/1208tt.jpg","y",""
"null","../img/gs/1208gs.jpg","","solution","image-keyboard-response","191","420155","0.0-2.0-3.31","EV","1","pretest","true","3586639","null","","",""
"null","../img/tt/1208tt.jpg","","mooney2","image-keyboard-response","192","422160","0.0-2.0-4.31","EV","1","pretest","true","3586639","null","","",""
"235","<p>How strong was your <strong>aha-experience</strong>?</p>","","aha","html-keyboard-response","193","422397","0.0-2.0-5.31","EV","1","pretest","true","3586639","52","../img/tt/1208tt.jpg","","4"
"null","<div style=""font-size:60px;""> </div>","","fixation","html-keyboard-response","194","422600","0.0-2.0-0.32","EV","1","pretest","true","3586639","null","","",""
"null","../img/tt/1038tt.jpg","","mooney1","image-keyboard-response","195","425605","0.0-2.0-1.32","EV","1","pretest","true","3586639","null","../img/tt/1038tt.jpg","",""
"511","<p></p>","","recognized","html-keyboard-response","196","426117","0.0-2.0-2.32","EV","1","pretest","true","3586639","89","../img/tt/1038tt.jpg","y",""
"null","../img/gs/1038gs.jpg","","solution","image-keyboard-response","197","428128","0.0-2.0-3.32","EV","1","pretest","true","3586639","null","","",""
"null","../img/tt/1038tt.jpg","","mooney2","image-keyboard-response","198","430135","0.0-2.0-4.32","EV","1","pretest","true","3586639","null","","",""
"4101","<p>How strong was your <strong>aha-experience</strong>?</p>","","aha","html-keyboard-response","199","434239","0.0-2.0-5.32","EV","1","pretest","true","3586639","53","../img/tt/1038tt.jpg","","5"
"null","<div style=""font-size:60px;""> </div>","","fixation","html-keyboard-response","200","434452","0.0-2.0-0.33","EV","1","pretest","true","3586639","null","","",""
"null","../img/tt/1013tt.jpg","","mooney1","image-keyboard-response","201","437468","0.0-2.0-1.33","EV","1","pretest","true","3586639","null","../img/tt/1013tt.jpg","",""
"1196","<p></p>","","recognized","html-keyboard-response","202","438666","0.0-2.0-2.33","EV","1","pretest","true","3586639","78","../img/tt/1013tt.jpg","n",""
"null","../img/gs/1013gs.jpg","","solution","image-keyboard-response","203","440683","0.0-2.0-3.33","EV","1","pretest","true","3586639","null","","",""
"null","../img/tt/1013tt.jpg","","mooney2","image-keyboard-response","204","442687","0.0-2.0-4.33","EV","1","pretest","true","3586639","null","","",""
"382","<p>How strong was your <strong>aha-experience</strong>?</p>","","aha","html-keyboard-response","205","443071","0.0-2.0-5.33","EV","1","pretest","true","3586639","52","../img/tt/1013tt.jpg","","4"
"null","<div style=""font-size:60px;""> </div>","","fixation","html-keyboard-response","206","443279","0.0-2.0-0.34","EV","1","pretest","true","3586639","null","","",""
"null","../img/tt/1219tt.jpg","","mooney1","image-keyboard-response","207","446283","0.0-2.0-1.34","EV","1","pretest","true","3586639","null","../img/tt/1219tt.jpg","",""
"387","<p></p>","","recognized","html-keyboard-response","208","446672","0.0-2.0-2.34","EV","1","pretest","true","3586639","89","../img/tt/1219tt.jpg","y",""
"null","../img/gs/1219gs.jpg","","solution","image-keyboard-response","209","448685","0.0-2.0-3.34","EV","1","pretest","true","3586639","null","","",""
"null","../img/tt/1219tt.jpg","","mooney2","image-keyboard-response","210","450699","0.0-2.0-4.34","EV","1","pretest","true","3586639","null","","",""
"448","<p>How strong was your <strong>aha-experience</strong>?</p>","","aha","html-keyboard-response","211","451149","0.0-2.0-5.34","EV","1","pretest","true","3586639","53","../img/tt/1219tt.jpg","","5"
"null","<div style=""font-size:60px;""> </div>","","fixation","html-keyboard-response","212","451351","0.0-2.0-0.35","EV","1","pretest","true","3586639","null","","",""
"null","../img/tt/1086tt.jpg","","mooney1","image-keyboard-response","213","454362","0.0-2.0-1.35","EV","1","pretest","true","3586639","null","../img/tt/1086tt.jpg","",""
"480","<p></p>","","recognized","html-keyboard-response","214","454844","0.0-2.0-2.35","EV","1","pretest","true","3586639","78","../img/tt/1086tt.jpg","n",""
"null","../img/gs/1086gs.jpg","","solution","image-keyboard-response","215","456847","0.0-2.0-3.35","EV","1","pretest","true","3586639","null","","",""
"null","../img/tt/1086tt.jpg","","mooney2","image-keyboard-response","216","458857","0.0-2.0-4.35","EV","1","pretest","true","3586639","null","","",""
"284","<p>How strong was your <strong>aha-experience</strong>?</p>","","aha","html-keyboard-response","217","459143","0.0-2.0-5.35","EV","1","pretest","true","3586639","51","../img/tt/1086tt.jpg","","3"
"null","<div style=""font-size:60px;""> </div>","","fixation","html-keyboard-response","218","459345","0.0-2.0-0.36","EV","1","pretest","true","3586639","null","","",""
"null","../img/tt/1160tt.jpg","","mooney1","image-keyboard-response","219","462346","0.0-2.0-1.36","EV","1","pretest","true","3586639","null","../img/tt/1160tt.jpg","",""
"306","<p></p>","","recognized","html-keyboard-response","220","462654","0.0-2.0-2.36","EV","1","pretest","true","3586639","89","../img/tt/1160tt.jpg","y",""
"null","../img/gs/1160gs.jpg","","solution","image-keyboard-response","221","464668","0.0-2.0-3.36","EV","1","pretest","true","3586639","null","","",""
"null","../img/tt/1160tt.jpg","","mooney2","image-keyboard-response","222","466682","0.0-2.0-4.36","EV","1","pretest","true","3586639","null","","",""
"268","<p>How strong was your <strong>aha-experience</strong>?</p>","","aha","html-keyboard-response","223","466953","0.0-2.0-5.36","EV","1","pretest","true","3586639","54","../img/tt/1160tt.jpg","","6"
"null","<div style=""font-size:60px;""> </div>","","fixation","html-keyboard-response","224","467168","0.0-2.0-0.37","EV","1","pretest","true","3586639","null","","",""
"null","../img/tt/018tt.jpg","","mooney1","image-keyboard-response","225","470181","0.0-2.0-1.37","EV","1","pretest","true","3586639","null","../img/tt/018tt.jpg","",""
"312","<p></p>","","recognized","html-keyboard-response","226","470494","0.0-2.0-2.37","EV","1","pretest","true","3586639","78","../img/tt/018tt.jpg","n",""
"null","../img/gs/018gs.jpg","","solution","image-keyboard-response","227","472497","0.0-2.0-3.37","EV","1","pretest","true","3586639","null","","",""
"null","../img/tt/018tt.jpg","","mooney2","image-keyboard-response","228","474499","0.0-2.0-4.37","EV","1","pretest","true","3586639","null","","",""
"287","<p>How strong was your <strong>aha-experience</strong>?</p>","","aha","html-keyboard-response","229","474788","0.0-2.0-5.37","EV","1","pretest","true","3586639","55","../img/tt/018tt.jpg","","7"
"null","<div style=""font-size:60px;""> </div>","","fixation","html-keyboard-response","230","475004","0.0-2.0-0.38","EV","1","pretest","true","3586639","null","","",""
"null","../img/tt/1127tt.jpg","","mooney1","image-keyboard-response","231","478014","0.0-2.0-1.38","EV","1","pretest","true","3586639","null","../img/tt/1127tt.jpg","",""
"348","<p></p>","","recognized","html-keyboard-response","232","478364","0.0-2.0-2.38","EV","1","pretest","true","3586639","89","../img/tt/1127tt.jpg","y",""
"null","../img/gs/1127gs.jpg","","solution","image-keyboard-response","233","480370","0.0-2.0-3.38","EV","1","pretest","true","3586639","null","","",""
"null","../img/tt/1127tt.jpg","","mooney2","image-keyboard-response","234","482385","0.0-2.0-4.38","EV","1","pretest","true","3586639","null","","",""
"345","<p>How strong was your <strong>aha-experience</strong>?</p>","","aha","html-keyboard-response","235","482733","0.0-2.0-5.38","EV","1","pretest","true","3586639","52","../img/tt/1127tt.jpg","","4"
"null","<div style=""font-size:60px;""> </div>","","fixation","html-keyboard-response","236","482943","0.0-2.0-0.39","EV","1","pretest","true","3586639","null","","",""
"null","../img/tt/046tt.jpg","","mooney1","image-keyboard-response","237","485947","0.0-2.0-1.39","EV","1","pretest","true","3586639","null","../img/tt/046tt.jpg","",""
"1215","<p></p>","","recognized","html-keyboard-response","238","487164","0.0-2.0-2.39","EV","1","pretest","true","3586639","78","../img/tt/046tt.jpg","n",""
"null","../img/gs/046gs.jpg","","solution","image-keyboard-response","239","489167","0.0-2.0-3.39","EV","1","pretest","true","3586639","null","","",""
"null","../img/tt/046tt.jpg","","mooney2","image-keyboard-response","240","491175","0.0-2.0-4.39","EV","1","pretest","true","3586639","null","","",""
"384","<p>How strong was your <strong>aha-experience</strong>?</p>","","aha","html-keyboard-response","241","491561","0.0-2.0-5.39","EV","1","pretest","true","3586639","53","../img/tt/046tt.jpg","","5"
"null","<div style=""font-size:60px;""> </div>","","fixation","html-keyboard-response","242","491772","0.0-2.0-0.40","EV","1","pretest","true","3586639","null","","",""
"null","../img/tt/019tt.jpg","","mooney1","image-keyboard-response","243","494781","0.0-2.0-1.40","EV","1","pretest","true","3586639","null","../img/tt/019tt.jpg","",""
"548","<p></p>","","recognized","html-keyboard-response","244","495331","0.0-2.0-2.40","EV","1","pretest","true","3586639","78","../img/tt/019tt.jpg","n",""
"null","../img/gs/019gs.jpg","","solution","image-keyboard-response","245","497334","0.0-2.0-3.40","EV","1","pretest","true","3586639","null","","",""
"null","../img/tt/019tt.jpg","","mooney2","image-keyboard-response","246","499344","0.0-2.0-4.40","EV","1","pretest","true","3586639","null","","",""
"359","<p>How strong was your <strong>aha-experience</strong>?</p>","","aha","html-keyboard-response","247","499707","0.0-2.0-5.40","EV","1","pretest","true","3586639","54","../img/tt/019tt.jpg","","6"
"null","<div style=""font-size:60px;""> </div>","","fixation","html-keyboard-response","248","499920","0.0-2.0-0.41","EV","1","pretest","true","3586639","null","","",""
"null","../img/tt/053tt.jpg","","mooney1","image-keyboard-response","249","502922","0.0-2.0-1.41","EV","1","pretest","true","3586639","null","../img/tt/053tt.jpg","",""
"952","<p></p>","","recognized","html-keyboard-response","250","503877","0.0-2.0-2.41","EV","1","pretest","true","3586639","78","../img/tt/053tt.jpg","n",""
"null","../img/gs/053gs.jpg","","solution","image-keyboard-response","251","505883","0.0-2.0-3.41","EV","1","pretest","true","3586639","null","","",""
"null","../img/tt/053tt.jpg","","mooney2","image-keyboard-response","252","507886","0.0-2.0-4.41","EV","1","pretest","true","3586639","null","","",""
"501","<p>How strong was your <strong>aha-experience</strong>?</p>","","aha","html-keyboard-response","253","508389","0.0-2.0-5.41","EV","1","pretest","true","3586639","53","../img/tt/053tt.jpg","","5"
"null","<div style=""font-size:60px;""> </div>","","fixation","html-keyboard-response","254","508596","0.0-2.0-0.42","EV","1","pretest","true","3586639","null","","",""
"null","../img/tt/035tt.jpg","","mooney1","image-keyboard-response","255","511601","0.0-2.0-1.42","EV","1","pretest","true","3586639","null","../img/tt/035tt.jpg","",""
"285","<p></p>","","recognized","html-keyboard-response","256","511888","0.0-2.0-2.42","EV","1","pretest","true","3586639","89","../img/tt/035tt.jpg","y",""
"null","../img/gs/035gs.jpg","","solution","image-keyboard-response","257","513901","0.0-2.0-3.42","EV","1","pretest","true","3586639","null","","",""
"null","../img/tt/035tt.jpg","","mooney2","image-keyboard-response","258","515906","0.0-2.0-4.42","EV","1","pretest","true","3586639","null","","",""
"1424","<p>How strong was your <strong>aha-experience</strong>?</p>","","aha","html-keyboard-response","259","517332","0.0-2.0-5.42","EV","1","pretest","true","3586639","51","../img/tt/035tt.jpg","","3"
"null","<div style=""font-size:60px;""> </div>","","fixation","html-keyboard-response","260","517545","0.0-2.0-0.43","EV","1","pretest","true","3586639","null","","",""
"null","../img/tt/086tt.jpg","","mooney1","image-keyboard-response","261","520557","0.0-2.0-1.43","EV","1","pretest","true","3586639","null","../img/tt/086tt.jpg","",""
"392","<p></p>","","recognized","html-keyboard-response","262","520951","0.0-2.0-2.43","EV","1","pretest","true","3586639","78","../img/tt/086tt.jpg","n",""
"null","../img/gs/086gs.jpg","","solution","image-keyboard-response","263","522964","0.0-2.0-3.43","EV","1","pretest","true","3586639","null","","",""
"null","../img/tt/086tt.jpg","","mooney2","image-keyboard-response","264","524981","0.0-2.0-4.43","EV","1","pretest","true","3586639","null","","",""
"317","<p>How strong was your <strong>aha-experience</strong>?</p>","","aha","html-keyboard-response","265","525300","0.0-2.0-5.43","EV","1","pretest","true","3586639","49","../img/tt/086tt.jpg","","1"
"null","<div style=""font-size:60px;""> </div>","","fixation","html-keyboard-response","266","525505","0.0-2.0-0.44","EV","1","pretest","true","3586639","null","","",""
"null","../img/tt/123tt.jpg","","mooney1","image-keyboard-response","267","528513","0.0-2.0-1.44","EV","1","pretest","true","3586639","null","../img/tt/123tt.jpg","",""
"515","<p></p>","","recognized","html-keyboard-response","268","529031","0.0-2.0-2.44","EV","1","pretest","true","3586639","89","../img/tt/123tt.jpg","y",""
"null","../img/gs/123gs.jpg","","solution","image-keyboard-response","269","531033","0.0-2.0-3.44","EV","1","pretest","true","3586639","null","","",""
"null","../img/tt/123tt.jpg","","mooney2","image-keyboard-response","270","533038","0.0-2.0-4.44","EV","1","pretest","true","3586639","null","","",""
"301","<p>How strong was your <strong>aha-experience</strong>?</p>","","aha","html-keyboard-response","271","533341","0.0-2.0-5.44","EV","1","pretest","true","3586639","52","../img/tt/123tt.jpg","","4"
"null","<div style=""font-size:60px;""> </div>","","fixation","html-keyboard-response","272","533543","0.0-2.0-0.45","EV","1","pretest","true","3586639","null","","",""
"null","../img/tt/1200tt.jpg","","mooney1","image-keyboard-response","273","536545","0.0-2.0-1.45","EV","1","pretest","true","3586639","null","../img/tt/1200tt.jpg","",""
"442","<p></p>","","recognized","html-keyboard-response","274","536989","0.0-2.0-2.45","EV","1","pretest","true","3586639","78","../img/tt/1200tt.jpg","n",""
"null","../img/gs/1200gs.jpg","","solution","image-keyboard-response","275","538994","0.0-2.0-3.45","EV","1","pretest","true","3586639","null","","",""
"null","../img/tt/1200tt.jpg","","mooney2","image-keyboard-response","276","540999","0.0-2.0-4.45","EV","1","pretest","true","3586639","null","","",""
"269","<p>How strong was your <strong>aha-experience</strong>?</p>","","aha","html-keyboard-response","277","541270","0.0-2.0-5.45","EV","1","pretest","true","3586639","54","../img/tt/1200tt.jpg","","6"
"null","<div style=""font-size:60px;""> </div>","","fixation","html-keyboard-response","278","541472","0.0-2.0-0.46","EV","1","pretest","true","3586639","null","","",""
"null","../img/tt/1294tt.jpg","","mooney1","image-keyboard-response","279","544489","0.0-2.0-1.46","EV","1","pretest","true","3586639","null","../img/tt/1294tt.jpg","",""
"394","<p></p>","","recognized","html-keyboard-response","280","544884","0.0-2.0-2.46","EV","1","pretest","true","3586639","89","../img/tt/1294tt.jpg","y",""
"null","../img/gs/1294gs.jpg","","solution","image-keyboard-response","281","546900","0.0-2.0-3.46","EV","1","pretest","true","3586639","null","","",""
"null","../img/tt/1294tt.jpg","","mooney2","image-keyboard-response","282","548905","0.0-2.0-4.46","EV","1","pretest","true","3586639","null","","",""
"254","<p>How strong was your <strong>aha-experience</strong>?</p>","","aha","html-keyboard-response","283","549160","0.0-2.0-5.46","EV","1","pretest","true","3586639","52","../img/tt/1294tt.jpg","","4"
"null","<div style=""font-size:60px;""> </div>","","fixation","html-keyboard-response","284","549374","0.0-2.0-0.47","EV","1","pretest","true","3586639","null","","",""
"null","../img/tt/1070tt.jpg","","mooney1","image-keyboard-response","285","552385","0.0-2.0-1.47","EV","1","pretest","true","3586639","null","../img/tt/1070tt.jpg","",""
"383","<p></p>","","recognized","html-keyboard-response","286","552770","0.0-2.0-2.47","EV","1","pretest","true","3586639","89","../img/tt/1070tt.jpg","y",""
"null","../img/gs/1070gs.jpg","","solution","image-keyboard-response","287","554776","0.0-2.0-3.47","EV","1","pretest","true","3586639","null","","",""
"null","../img/tt/1070tt.jpg","","mooney2","image-keyboard-response","288","556788","0.0-2.0-4.47","EV","1","pretest","true","3586639","null","","",""
"460","<p>How strong was your <strong>aha-experience</strong>?</p>","","aha","html-keyboard-response","289","557250","0.0-2.0-5.47","EV","1","pretest","true","3586639","54","../img/tt/1070tt.jpg","","6"
"null","<div style=""font-size:60px;""> </div>","","fixation","html-keyboard-response","290","557451","0.0-2.0-0.48","EV","1","pretest","true","3586639","null","","",""
"null","../img/tt/1169tt.jpg","","mooney1","image-keyboard-response","291","560466","0.0-2.0-1.48","EV","1","pretest","true","3586639","null","../img/tt/1169tt.jpg","",""
"392","<p></p>","","recognized","html-keyboard-response","292","560860","0.0-2.0-2.48","EV","1","pretest","true","3586639","89","../img/tt/1169tt.jpg","y",""
"null","../img/gs/1169gs.jpg","","solution","image-keyboard-response","293","562871","0.0-2.0-3.48","EV","1","pretest","true","3586639","null","","",""
"null","../img/tt/1169tt.jpg","","mooney2","image-keyboard-response","294","564873","0.0-2.0-4.48","EV","1","pretest","true","3586639","null","","",""
"308","<p>How strong was your <strong>aha-experience</strong>?</p>","","aha","html-keyboard-response","295","565183","0.0-2.0-5.48","EV","1","pretest","true","3586639","54","../img/tt/1169tt.jpg","","6"
"null","<div style=""font-size:60px;""> </div>","","fixation","html-keyboard-response","296","565384","0.0-2.0-0.49","EV","1","pretest","true","3586639","null","","",""
"null","../img/tt/1087tt.jpg","","mooney1","image-keyboard-response","297","568397","0.0-2.0-1.49","EV","1","pretest","true","3586639","null","../img/tt/1087tt.jpg","",""
"376","<p></p>","","recognized","html-keyboard-response","298","568773","0.0-2.0-2.49","EV","1","pretest","true","3586639","89","../img/tt/1087tt.jpg","y",""
"null","../img/gs/1087gs.jpg","","solution","image-keyboard-response","299","570777","0.0-2.0-3.49","EV","1","pretest","true","3586639","null","","",""
"null","../img/tt/1087tt.jpg","","mooney2","image-keyboard-response","300","572795","0.0-2.0-4.49","EV","1","pretest","true","3586639","null","","",""
"436","<p>How strong was your <strong>aha-experience</strong>?</p>","","aha","html-keyboard-response","301","573233","0.0-2.0-5.49","EV","1","pretest","true","3586639","54","../img/tt/1087tt.jpg","","6"
"null","<div style=""font-size:60px;""> </div>","","fixation","html-keyboard-response","302","573434","0.0-2.0-0.50","EV","1","pretest","true","3586639","null","","",""
"null","../img/tt/1058tt.jpg","","mooney1","image-keyboard-response","303","576439","0.0-2.0-1.50","EV","1","pretest","true","3586639","null","../img/tt/1058tt.jpg","",""
"466","<p></p>","","recognized","html-keyboard-response","304","576907","0.0-2.0-2.50","EV","1","pretest","true","3586639","89","../img/tt/1058tt.jpg","y",""
"null","../img/gs/1058gs.jpg","","solution","image-keyboard-response","305","578909","0.0-2.0-3.50","EV","1","pretest","true","3586639","null","","",""
"null","../img/tt/1058tt.jpg","","mooney2","image-keyboard-response","306","580923","0.0-2.0-4.50","EV","1","pretest","true","3586639","null","","",""
"296","<p>How strong was your <strong>aha-experience</strong>?</p>","","aha","html-keyboard-response","307","581220","0.0-2.0-5.50","EV","1","pretest","true","3586639","52","../img/tt/1058tt.jpg","","4"
"null","<div style=""font-size:60px;""> </div>","","fixation","html-keyboard-response","308","581425","0.0-2.0-0.51","EV","1","pretest","true","3586639","null","","",""
"null","../img/tt/1264tt.jpg","","mooney1","image-keyboard-response","309","584434","0.0-2.0-1.51","EV","1","pretest","true","3586639","null","../img/tt/1264tt.jpg","",""
"290","<p></p>","","recognized","html-keyboard-response","310","584727","0.0-2.0-2.51","EV","1","pretest","true","3586639","89","../img/tt/1264tt.jpg","y",""
"null","../img/gs/1264gs.jpg","","solution","image-keyboard-response","311","586738","0.0-2.0-3.51","EV","1","pretest","true","3586639","null","","",""
"null","../img/tt/1264tt.jpg","","mooney2","image-keyboard-response","312","588745","0.0-2.0-4.51","EV","1","pretest","true","3586639","null","","",""
"290","<p>How strong was your <strong>aha-experience</strong>?</p>","","aha","html-keyboard-response","313","589037","0.0-2.0-5.51","EV","1","pretest","true","3586639","54","../img/tt/1264tt.jpg","","6"
"null","<div style=""font-size:60px;""> </div>","","fixation","html-keyboard-response","314","589252","0.0-2.0-0.52","EV","1","pretest","true","3586639","null","","",""
"null","../img/tt/122tt.jpg","","mooney1","image-keyboard-response","315","592270","0.0-2.0-1.52","EV","1","pretest","true","3586639","null","../img/tt/122tt.jpg","",""
"158","<p></p>","","recognized","html-keyboard-response","316","592430","0.0-2.0-2.52","EV","1","pretest","true","3586639","78","../img/tt/122tt.jpg","n",""
"null","../img/gs/122gs.jpg","","solution","image-keyboard-response","317","594433","0.0-2.0-3.52","EV","1","pretest","true","3586639","null","","",""
"null","../img/tt/122tt.jpg","","mooney2","image-keyboard-response","318","596442","0.0-2.0-4.52","EV","1","pretest","true","3586639","null","","",""
"80","<p>How strong was your <strong>aha-experience</strong>?</p>","","aha","html-keyboard-response","319","596525","0.0-2.0-5.52","EV","1","pretest","true","3586639","51","../img/tt/122tt.jpg","","3"
"null","<div style=""font-size:60px;""> </div>","","fixation","html-keyboard-response","320","596738","0.0-2.0-0.53","EV","1","pretest","true","3586639","null","","",""
"null","../img/tt/040tt.jpg","","mooney1","image-keyboard-response","321","599740","0.0-2.0-1.53","EV","1","pretest","true","3586639","null","../img/tt/040tt.jpg","",""
"607","<p></p>","","recognized","html-keyboard-response","322","600348","0.0-2.0-2.53","EV","1","pretest","true","3586639","78","../img/tt/040tt.jpg","n",""
"null","../img/gs/040gs.jpg","","solution","image-keyboard-response","323","602351","0.0-2.0-3.53","EV","1","pretest","true","3586639","null","","",""
"null","../img/tt/040tt.jpg","","mooney2","image-keyboard-response","324","604362","0.0-2.0-4.53","EV","1","pretest","true","3586639","null","","",""
"354","<p>How strong was your <strong>aha-experience</strong>?</p>","","aha","html-keyboard-response","325","604718","0.0-2.0-5.53","EV","1","pretest","true","3586639","55","../img/tt/040tt.jpg","","7"
"null","<div style=""font-size:60px;""> </div>","","fixation","html-keyboard-response","326","604921","0.0-2.0-0.54","EV","1","pretest","true","3586639","null","","",""
"null","../img/tt/120tt.jpg","","mooney1","image-keyboard-response","327","607924","0.0-2.0-1.54","EV","1","pretest","true","3586639","null","../img/tt/120tt.jpg","",""
"429","<p></p>","","recognized","html-keyboard-response","328","608354","0.0-2.0-2.54","EV","1","pretest","true","3586639","89","../img/tt/120tt.jpg","y",""
"null","../img/gs/120gs.jpg","","solution","image-keyboard-response","329","610367","0.0-2.0-3.54","EV","1","pretest","true","3586639","null","","",""
"null","../img/tt/120tt.jpg","","mooney2","image-keyboard-response","330","612370","0.0-2.0-4.54","EV","1","pretest","true","3586639","null","","",""
"2112","<p>How strong was your <strong>aha-experience</strong>?</p>","","aha","html-keyboard-response","331","614484","0.0-2.0-5.54","EV","1","pretest","true","3586639","52","../img/tt/120tt.jpg","","4"
"null","<div style=""font-size:60px;""> </div>","","fixation","html-keyboard-response","332","614695","0.0-2.0-0.55","EV","1","pretest","true","3586639","null","","",""
"null","../img/tt/1193tt.jpg","","mooney1","image-keyboard-response","333","617697","0.0-2.0-1.55","EV","1","pretest","true","3586639","null","../img/tt/1193tt.jpg","",""
"412","<p></p>","","recognized","html-keyboard-response","334","618112","0.0-2.0-2.55","EV","1","pretest","true","3586639","78","../img/tt/1193tt.jpg","n",""
"null","../img/gs/1193gs.jpg","","solution","image-keyboard-response","335","620124","0.0-2.0-3.55","EV","1","pretest","true","3586639","null","","",""
"null","../img/tt/1193tt.jpg","","mooney2","image-keyboard-response","336","622133","0.0-2.0-4.55","EV","1","pretest","true","3586639","null","","",""
"369","<p>How strong was your <strong>aha-experience</strong>?</p>","","aha","html-keyboard-response","337","622504","0.0-2.0-5.55","EV","1","pretest","true","3586639","52","../img/tt/1193tt.jpg","","4"
"null","<div style=""font-size:60px;""> </div>","","fixation","html-keyboard-response","338","622720","0.0-2.0-0.56","EV","1","pretest","true","3586639","null","","",""
"null","../img/tt/1152tt.jpg","","mooney1","image-keyboard-response","339","625732","0.0-2.0-1.56","EV","1","pretest","true","3586639","null","../img/tt/1152tt.jpg","",""
"338","<p></p>","","recognized","html-keyboard-response","340","626071","0.0-2.0-2.56","EV","1","pretest","true","3586639","89","../img/tt/1152tt.jpg","y",""
"null","../img/gs/1152gs.jpg","","solution","image-keyboard-response","341","628075","0.0-2.0-3.56","EV","1","pretest","true","3586639","null","","",""
"null","../img/tt/1152tt.jpg","","mooney2","image-keyboard-response","342","630089","0.0-2.0-4.56","EV","1","pretest","true","3586639","null","","",""
"301","<p>How strong was your <strong>aha-experience</strong>?</p>","","aha","html-keyboard-response","343","630391","0.0-2.0-5.56","EV","1","pretest","true","3586639","52","../img/tt/1152tt.jpg","","4"
"null","<div style=""font-size:60px;""> </div>","","fixation","html-keyboard-response","344","630607","0.0-2.0-0.57","EV","1","pretest","true","3586639","null","","",""
"null","../img/tt/1241tt.jpg","","mooney1","image-keyboard-response","345","633609","0.0-2.0-1.57","EV","1","pretest","true","3586639","null","../img/tt/1241tt.jpg","",""
"478","<p></p>","","recognized","html-keyboard-response","346","634089","0.0-2.0-2.57","EV","1","pretest","true","3586639","89","../img/tt/1241tt.jpg","y",""
"null","../img/gs/1241gs.jpg","","solution","image-keyboard-response","347","636106","0.0-2.0-3.57","EV","1","pretest","true","3586639","null","","",""
"null","../img/tt/1241tt.jpg","","mooney2","image-keyboard-response","348","638109","0.0-2.0-4.57","EV","1","pretest","true","3586639","null","","",""
"279","<p>How strong was your <strong>aha-experience</strong>?</p>","","aha","html-keyboard-response","349","638390","0.0-2.0-5.57","EV","1","pretest","true","3586639","54","../img/tt/1241tt.jpg","","6"
"null","<div style=""font-size:60px;""> </div>","","fixation","html-keyboard-response","350","638591","0.0-2.0-0.58","EV","1","pretest","true","3586639","null","","",""
"null","../img/tt/1161tt.jpg","","mooney1","image-keyboard-response","351","641606","0.0-2.0-1.58","EV","1","pretest","true","3586639","null","../img/tt/1161tt.jpg","",""
"472","<p></p>","","recognized","html-keyboard-response","352","642080","0.0-2.0-2.58","EV","1","pretest","true","3586639","78","../img/tt/1161tt.jpg","n",""
"null","../img/gs/1161gs.jpg","","solution","image-keyboard-response","353","644091","0.0-2.0-3.58","EV","1","pretest","true","3586639","null","","",""
"null","../img/tt/1161tt.jpg","","mooney2","image-keyboard-response","354","646105","0.0-2.0-4.58","EV","1","pretest","true","3586639","null","","",""
"557","<p>How strong was your <strong>aha-experience</strong>?</p>","","aha","html-keyboard-response","355","646664","0.0-2.0-5.58","EV","1","pretest","true","3586639","55","../img/tt/1161tt.jpg","","7"
"null","<div style=""font-size:60px;""> </div>","","fixation","html-keyboard-response","356","646865","0.0-2.0-0.59","EV","1","pretest","true","3586639","null","","",""
"null","../img/tt/1081tt.jpg","","mooney1","image-keyboard-response","357","649880","0.0-2.0-1.59","EV","1","pretest","true","3586639","null","../img/tt/1081tt.jpg","",""
"321","<p></p>","","recognized","html-keyboard-response","358","650203","0.0-2.0-2.59","EV","1","pretest","true","3586639","89","../img/tt/1081tt.jpg","y",""
"null","../img/gs/1081gs.jpg","","solution","image-keyboard-response","359","652206","0.0-2.0-3.59","EV","1","pretest","true","3586639","null","","",""
"null","../img/tt/1081tt.jpg","","mooney2","image-keyboard-response","360","654215","0.0-2.0-4.59","EV","1","pretest","true","3586639","null","","",""
"443","<p>How strong was your <strong>aha-experience</strong>?</p>","","aha","html-keyboard-response","361","654661","0.0-2.0-5.59","EV","1","pretest","true","3586639","53","../img/tt/1081tt.jpg","","5"
"null","<div style=""font-size:60px;""> </div>","","fixation","html-keyboard-response","362","654863","0.0-2.0-0.60","EV","1","pretest","true","3586639","null","","",""
"null","../img/tt/1071tt.jpg","","mooney1","image-keyboard-response","363","657865","0.0-2.0-1.60","EV","1","pretest","true","3586639","null","../img/tt/1071tt.jpg","",""
"435","<p></p>","","recognized","html-keyboard-response","364","658302","0.0-2.0-2.60","EV","1","pretest","true","3586639","78","../img/tt/1071tt.jpg","n",""
"null","../img/gs/1071gs.jpg","","solution","image-keyboard-response","365","660310","0.0-2.0-3.60","EV","1","pretest","true","3586639","null","","",""
"null","../img/tt/1071tt.jpg","","mooney2","image-keyboard-response","366","662313","0.0-2.0-4.60","EV","1","pretest","true","3586639","null","","",""
"300","<p>How strong was your <strong>aha-experience</strong>?</p>","","aha","html-keyboard-response","367","662615","0.0-2.0-5.60","EV","1","pretest","true","3586639","50","../img/tt/1071tt.jpg","","2"
"null","<div style=""font-size:60px;""> </div>","","fixation","html-keyboard-response","368","662822","0.0-2.0-0.61","EV","1","pretest","true","3586639","null","","",""
"null","../img/tt/032tt.jpg","","mooney1","image-keyboard-response","369","665824","0.0-2.0-1.61","EV","1","pretest","true","3586639","null","../img/tt/032tt.jpg","",""
"1966","<p></p>","","recognized","html-keyboard-response","370","667792","0.0-2.0-2.61","EV","1","pretest","true","3586639","78","../img/tt/032tt.jpg","n",""
"null","../img/gs/032gs.jpg","","solution","image-keyboard-response","371","669808","0.0-2.0-3.61","EV","1","pretest","true","3586639","null","","",""
"null","../img/tt/032tt.jpg","","mooney2","image-keyboard-response","372","671811","0.0-2.0-4.61","EV","1","pretest","true","3586639","null","","",""
"424","<p>How strong was your <strong>aha-experience</strong>?</p>","","aha","html-keyboard-response","373","672237","0.0-2.0-5.61","EV","1","pretest","true","3586639","50","../img/tt/032tt.jpg","","2"
"null","<div style=""font-size:60px;""> </div>","","fixation","html-keyboard-response","374","672449","0.0-2.0-0.62","EV","1","pretest","true","3586639","null","","",""
"null","../img/tt/1002tt.jpg","","mooney1","image-keyboard-response","375","675464","0.0-2.0-1.62","EV","1","pretest","true","3586639","null","../img/tt/1002tt.jpg","",""
"551","<p></p>","","recognized","html-keyboard-response","376","676017","0.0-2.0-2.62","EV","1","pretest","true","3586639","89","../img/tt/1002tt.jpg","y",""
"null","../img/gs/1002gs.jpg","","solution","image-keyboard-response","377","678027","0.0-2.0-3.62","EV","1","pretest","true","3586639","null","","",""
"null","../img/tt/1002tt.jpg","","mooney2","image-keyboard-response","378","680039","0.0-2.0-4.62","EV","1","pretest","true","3586639","null","","",""
"754","<p>How strong was your <strong>aha-experience</strong>?</p>","","aha","html-keyboard-response","379","680795","0.0-2.0-5.62","EV","1","pretest","true","3586639","54","../img/tt/1002tt.jpg","","6"
"null","<div style=""font-size:60px;""> </div>","","fixation","html-keyboard-response","380","680997","0.0-2.0-0.63","EV","1","pretest","true","3586639","null","","",""
"null","../img/tt/031tt.jpg","","mooney1","image-keyboard-response","381","684011","0.0-2.0-1.63","EV","1","pretest","true","3586639","null","../img/tt/031tt.jpg","",""
"530","<p></p>","","recognized","html-keyboard-response","382","684543","0.0-2.0-2.63","EV","1","pretest","true","3586639","89","../img/tt/031tt.jpg","y",""
"null","../img/gs/031gs.jpg","","solution","image-keyboard-response","383","686552","0.0-2.0-3.63","EV","1","pretest","true","3586639","null","","",""
"null","../img/tt/031tt.jpg","","mooney2","image-keyboard-response","384","688558","0.0-2.0-4.63","EV","1","pretest","true","3586639","null","","",""
"348","<p>How strong was your <strong>aha-experience</strong>?</p>","","aha","html-keyboard-response","385","688909","0.0-2.0-5.63","EV","1","pretest","true","3586639","52","../img/tt/031tt.jpg","","4"
"null","<div style=""font-size:60px;""> </div>","","fixation","html-keyboard-response","386","689118","0.0-2.0-0.64","EV","1","pretest","true","3586639","null","","",""
"null","../img/tt/1072tt.jpg","","mooney1","image-keyboard-response","387","692131","0.0-2.0-1.64","EV","1","pretest","true","3586639","null","../img/tt/1072tt.jpg","",""
"704","<p></p>","","recognized","html-keyboard-response","388","692837","0.0-2.0-2.64","EV","1","pretest","true","3586639","78","../img/tt/1072tt.jpg","n",""
"null","../img/gs/1072gs.jpg","","solution","image-keyboard-response","389","694844","0.0-2.0-3.64","EV","1","pretest","true","3586639","null","","",""
"null","../img/tt/1072tt.jpg","","mooney2","image-keyboard-response","390","696851","0.0-2.0-4.64","EV","1","pretest","true","3586639","null","","",""
"794","<p>How strong was your <strong>aha-experience</strong>?</p>","","aha","html-keyboard-response","391","697647","0.0-2.0-5.64","EV","1","pretest","true","3586639","51","../img/tt/1072tt.jpg","","3"
"null","<div style=""font-size:60px;""> </div>","","fixation","html-keyboard-response","392","697861","0.0-2.0-0.65","EV","1","pretest","true","3586639","null","","",""
"null","../img/tt/1291tt.jpg","","mooney1","image-keyboard-response","393","700875","0.0-2.0-1.65","EV","1","pretest","true","3586639","null","../img/tt/1291tt.jpg","",""
"346","<p></p>","","recognized","html-keyboard-response","394","701223","0.0-2.0-2.65","EV","1","pretest","true","3586639","89","../img/tt/1291tt.jpg","y",""
"null","../img/gs/1291gs.jpg","","solution","image-keyboard-response","395","703230","0.0-2.0-3.65","EV","1","pretest","true","3586639","null","","",""
"null","../img/tt/1291tt.jpg","","mooney2","image-keyboard-response","396","705244","0.0-2.0-4.65","EV","1","pretest","true","3586639","null","","",""
"678","<p>How strong was your <strong>aha-experience</strong>?</p>","","aha","html-keyboard-response","397","705924","0.0-2.0-5.65","EV","1","pretest","true","3586639","52","../img/tt/1291tt.jpg","","4"
"null","<div style=""font-size:60px;""> </div>","","fixation","html-keyboard-response","398","706126","0.0-2.0-0.66","EV","1","pretest","true","3586639","null","","",""
"null","../img/tt/039tt.jpg","","mooney1","image-keyboard-response","399","709134","0.0-2.0-1.66","EV","1","pretest","true","3586639","null","../img/tt/039tt.jpg","",""
"275","<p></p>","","recognized","html-keyboard-response","400","709410","0.0-2.0-2.66","EV","1","pretest","true","3586639","89","../img/tt/039tt.jpg","y",""
"null","../img/gs/039gs.jpg","","solution","image-keyboard-response","401","711417","0.0-2.0-3.66","EV","1","pretest","true","3586639","null","","",""
"null","../img/tt/039tt.jpg","","mooney2","image-keyboard-response","402","713433","0.0-2.0-4.66","EV","1","pretest","true","3586639","null","","",""
"279","<p>How strong was your <strong>aha-experience</strong>?</p>","","aha","html-keyboard-response","403","713713","0.0-2.0-5.66","EV","1","pretest","true","3586639","51","../img/tt/039tt.jpg","","3"
"null","<div style=""font-size:60px;""> </div>","","fixation","html-keyboard-response","404","713917","0.0-2.0-0.67","EV","1","pretest","true","3586639","null","","",""
"null","../img/tt/1256tt.jpg","","mooney1","image-keyboard-response","405","716920","0.0-2.0-1.67","EV","1","pretest","true","3586639","null","../img/tt/1256tt.jpg","",""
"366","<p></p>","","recognized","html-keyboard-response","406","717287","0.0-2.0-2.67","EV","1","pretest","true","3586639","89","../img/tt/1256tt.jpg","y",""
"null","../img/gs/1256gs.jpg","","solution","image-keyboard-response","407","719299","0.0-2.0-3.67","EV","1","pretest","true","3586639","null","","",""
"null","../img/tt/1256tt.jpg","","mooney2","image-keyboard-response","408","721307","0.0-2.0-4.67","EV","1","pretest","true","3586639","null","","",""
"306","<p>How strong was your <strong>aha-experience</strong>?</p>","","aha","html-keyboard-response","409","721615","0.0-2.0-5.67","EV","1","pretest","true","3586639","54","../img/tt/1256tt.jpg","","6"
"null","<div style=""font-size:60px;""> </div>","","fixation","html-keyboard-response","410","721823","0.0-2.0-0.68","EV","1","pretest","true","3586639","null","","",""
"null","../img/tt/127tt.jpg","","mooney1","image-keyboard-response","411","724828","0.0-2.0-1.68","EV","1","pretest","true","3586639","null","../img/tt/127tt.jpg","",""
"815","<p></p>","","recognized","html-keyboard-response","412","725645","0.0-2.0-2.68","EV","1","pretest","true","3586639","78","../img/tt/127tt.jpg","n",""
"null","../img/gs/127gs.jpg","","solution","image-keyboard-response","413","727657","0.0-2.0-3.68","EV","1","pretest","true","3586639","null","","",""
"null","../img/tt/127tt.jpg","","mooney2","image-keyboard-response","414","729667","0.0-2.0-4.68","EV","1","pretest","true","3586639","null","","",""
"646","<p>How strong was your <strong>aha-experience</strong>?</p>","","aha","html-keyboard-response","415","730316","0.0-2.0-5.68","EV","1","pretest","true","3586639","51","../img/tt/127tt.jpg","","3"
"null","<div style=""font-size:60px;""> </div>","","fixation","html-keyboard-response","416","730528","0.0-2.0-0.69","EV","1","pretest","true","3586639","null","","",""
"null","../img/tt/1062tt.jpg","","mooney1","image-keyboard-response","417","733542","0.0-2.0-1.69","EV","1","pretest","true","3586639","null","../img/tt/1062tt.jpg","",""
"426","<p></p>","","recognized","html-keyboard-response","418","733970","0.0-2.0-2.69","EV","1","pretest","true","3586639","89","../img/tt/1062tt.jpg","y",""
"null","../img/gs/1062gs.jpg","","solution","image-keyboard-response","419","735980","0.0-2.0-3.69","EV","1","pretest","true","3586639","null","","",""
"null","../img/tt/1062tt.jpg","","mooney2","image-keyboard-response","420","737983","0.0-2.0-4.69","EV","1","pretest","true","3586639","null","","",""
"369","<p>How strong was your <strong>aha-experience</strong>?</p>","","aha","html-keyboard-response","421","738354","0.0-2.0-5.69","EV","1","pretest","true","3586639","52","../img/tt/1062tt.jpg","","4"
"null","<div style=""font-size:60px;""> </div>","","fixation","html-keyboard-response","422","738555","0.0-2.0-0.70","EV","1","pretest","true","3586639","null","","",""
"null","../img/tt/074tt.jpg","","mooney1","image-keyboard-response","423","741564","0.0-2.0-1.70","EV","1","pretest","true","3586639","null","../img/tt/074tt.jpg","",""
"547","<p></p>","","recognized","html-keyboard-response","424","742113","0.0-2.0-2.70","EV","1","pretest","true","3586639","89","../img/tt/074tt.jpg","y",""
"null","../img/gs/074gs.jpg","","solution","image-keyboard-response","425","744121","0.0-2.0-3.70","EV","1","pretest","true","3586639","null","","",""
"null","../img/tt/074tt.jpg","","mooney2","image-keyboard-response","426","746123","0.0-2.0-4.70","EV","1","pretest","true","3586639","null","","",""
"256","<p>How strong was your <strong>aha-experience</strong>?</p>","","aha","html-keyboard-response","427","746382","0.0-2.0-5.70","EV","1","pretest","true","3586639","53","../img/tt/074tt.jpg","","5"
"null","<div style=""font-size:60px;""> </div>","","fixation","html-keyboard-response","428","746598","0.0-2.0-0.71","EV","1","pretest","true","3586639","null","","",""
"null","../img/tt/1282tt.jpg","","mooney1","image-keyboard-response","429","749608","0.0-2.0-1.71","EV","1","pretest","true","3586639","null","../img/tt/1282tt.jpg","",""
"281","<p></p>","","recognized","html-keyboard-response","430","749890","0.0-2.0-2.71","EV","1","pretest","true","3586639","89","../img/tt/1282tt.jpg","y",""
"null","../img/gs/1282gs.jpg","","solution","image-keyboard-response","431","751896","0.0-2.0-3.71","EV","1","pretest","true","3586639","null","","",""
"null","../img/tt/1282tt.jpg","","mooney2","image-keyboard-response","432","753902","0.0-2.0-4.71","EV","1","pretest","true","3586639","null","","",""
"342","<p>How strong was your <strong>aha-experience</strong>?</p>","","aha","html-keyboard-response","433","754246","0.0-2.0-5.71","EV","1","pretest","true","3586639","52","../img/tt/1282tt.jpg","","4"
"null","<div style=""font-size:60px;""> </div>","","fixation","html-keyboard-response","434","754448","0.0-2.0-0.72","EV","1","pretest","true","3586639","null","","",""
"null","../img/tt/1004tt.jpg","","mooney1","image-keyboard-response","435","757451","0.0-2.0-1.72","EV","1","pretest","true","3586639","null","../img/tt/1004tt.jpg","",""
"493","<p></p>","","recognized","html-keyboard-response","436","757946","0.0-2.0-2.72","EV","1","pretest","true","3586639","78","../img/tt/1004tt.jpg","n",""
"null","../img/gs/1004gs.jpg","","solution","image-keyboard-response","437","759964","0.0-2.0-3.72","EV","1","pretest","true","3586639","null","","",""
"null","../img/tt/1004tt.jpg","","mooney2","image-keyboard-response","438","761975","0.0-2.0-4.72","EV","1","pretest","true","3586639","null","","",""
"645","<p>How strong was your <strong>aha-experience</strong>?</p>","","aha","html-keyboard-response","439","762621","0.0-2.0-5.72","EV","1","pretest","true","3586639","54","../img/tt/1004tt.jpg","","6"
"null","<div style=""font-size:60px;""> </div>","","fixation","html-keyboard-response","440","762831","0.0-2.0-0.73","EV","1","pretest","true","3586639","null","","",""
"null","../img/tt/1187tt.jpg","","mooney1","image-keyboard-response","441","765838","0.0-2.0-1.73","EV","1","pretest","true","3586639","null","../img/tt/1187tt.jpg","",""
"419","<p></p>","","recognized","html-keyboard-response","442","766259","0.0-2.0-2.73","EV","1","pretest","true","3586639","78","../img/tt/1187tt.jpg","n",""
"null","../img/gs/1187gs.jpg","","solution","image-keyboard-response","443","768262","0.0-2.0-3.73","EV","1","pretest","true","3586639","null","","",""
"null","../img/tt/1187tt.jpg","","mooney2","image-keyboard-response","444","770275","0.0-2.0-4.73","EV","1","pretest","true","3586639","null","","",""
"279","<p>How strong was your <strong>aha-experience</strong>?</p>","","aha","html-keyboard-response","445","770557","0.0-2.0-5.73","EV","1","pretest","true","3586639","52","../img/tt/1187tt.jpg","","4"
"null","<div style=""font-size:60px;""> </div>","","fixation","html-keyboard-response","446","770772","0.0-2.0-0.74","EV","1","pretest","true","3586639","null","","",""
"null","../img/tt/1082tt.jpg","","mooney1","image-keyboard-response","447","773775","0.0-2.0-1.74","EV","1","pretest","true","3586639","null","../img/tt/1082tt.jpg","",""
"469","<p></p>","","recognized","html-keyboard-response","448","774246","0.0-2.0-2.74","EV","1","pretest","true","3586639","78","../img/tt/1082tt.jpg","n",""
"null","../img/gs/1082gs.jpg","","solution","image-keyboard-response","449","776257","0.0-2.0-3.74","EV","1","pretest","true","3586639","null","","",""
"null","../img/tt/1082tt.jpg","","mooney2","image-keyboard-response","450","778259","0.0-2.0-4.74","EV","1","pretest","true","3586639","null","","",""
"226","<p>How strong was your <strong>aha-experience</strong>?</p>","","aha","html-keyboard-response","451","778488","0.0-2.0-5.74","EV","1","pretest","true","3586639","54","../img/tt/1082tt.jpg","","6"
"null","<div style=""font-size:60px;""> </div>","","fixation","html-keyboard-response","452","778692","0.0-2.0-0.75","EV","1","pretest","true","3586639","null","","",""
"null","../img/tt/052tt.jpg","","mooney1","image-keyboard-response","453","781703","0.0-2.0-1.75","EV","1","pretest","true","3586639","null","../img/tt/052tt.jpg","",""
"351","<p></p>","","recognized","html-keyboard-response","454","782055","0.0-2.0-2.75","EV","1","pretest","true","3586639","89","../img/tt/052tt.jpg","y",""
"null","../img/gs/052gs.jpg","","solution","image-keyboard-response","455","784072","0.0-2.0-3.75","EV","1","pretest","true","3586639","null","","",""
"null","../img/tt/052tt.jpg","","mooney2","image-keyboard-response","456","786091","0.0-2.0-4.75","EV","1","pretest","true","3586639","null","","",""
"306","<p>How strong was your <strong>aha-experience</strong>?</p>","","aha","html-keyboard-response","457","786399","0.0-2.0-5.75","EV","1","pretest","true","3586639","55","../img/tt/052tt.jpg","","7"
"null","<div style=""font-size:60px;""> </div>","","fixation","html-keyboard-response","458","786601","0.0-2.0-0.76","EV","1","pretest","true","3586639","null","","",""
"null","../img/tt/1060tt.jpg","","mooney1","image-keyboard-response","459","789604","0.0-2.0-1.76","EV","1","pretest","true","3586639","null","../img/tt/1060tt.jpg","",""
"542","<p></p>","","recognized","html-keyboard-response","460","790148","0.0-2.0-2.76","EV","1","pretest","true","3586639","89","../img/tt/1060tt.jpg","y",""
"null","../img/gs/1060gs.jpg","","solution","image-keyboard-response","461","792160","0.0-2.0-3.76","EV","1","pretest","true","3586639","null","","",""
"null","../img/tt/1060tt.jpg","","mooney2","image-keyboard-response","462","794169","0.0-2.0-4.76","EV","1","pretest","true","3586639","null","","",""
"269","<p>How strong was your <strong>aha-experience</strong>?</p>","","aha","html-keyboard-response","463","794441","0.0-2.0-5.76","EV","1","pretest","true","3586639","54","../img/tt/1060tt.jpg","","6"
"null","<div style=""font-size:60px;""> </div>","","fixation","html-keyboard-response","464","794644","0.0-2.0-0.77","EV","1","pretest","true","3586639","null","","",""
"null","../img/tt/1024tt.jpg","","mooney1","image-keyboard-response","465","797645","0.0-2.0-1.77","EV","1","pretest","true","3586639","null","../img/tt/1024tt.jpg","",""
"454","<p></p>","","recognized","html-keyboard-response","466","798101","0.0-2.0-2.77","EV","1","pretest","true","3586639","89","../img/tt/1024tt.jpg","y",""
"null","../img/gs/1024gs.jpg","","solution","image-keyboard-response","467","800106","0.0-2.0-3.77","EV","1","pretest","true","3586639","null","","",""
"null","../img/tt/1024tt.jpg","","mooney2","image-keyboard-response","468","802114","0.0-2.0-4.77","EV","1","pretest","true","3586639","null","","",""
"227","<p>How strong was your <strong>aha-experience</strong>?</p>","","aha","html-keyboard-response","469","802343","0.0-2.0-5.77","EV","1","pretest","true","3586639","53","../img/tt/1024tt.jpg","","5"
"null","<div style=""font-size:60px;""> </div>","","fixation","html-keyboard-response","470","802547","0.0-2.0-0.78","EV","1","pretest","true","3586639","null","","",""
"null","../img/tt/1134tt.jpg","","mooney1","image-keyboard-response","471","805555","0.0-2.0-1.78","EV","1","pretest","true","3586639","null","../img/tt/1134tt.jpg","",""
"1262","<p></p>","","recognized","html-keyboard-response","472","806818","0.0-2.0-2.78","EV","1","pretest","true","3586639","78","../img/tt/1134tt.jpg","n",""
"null","../img/gs/1134gs.jpg","","solution","image-keyboard-response","473","808822","0.0-2.0-3.78","EV","1","pretest","true","3586639","null","","",""
"null","../img/tt/1134tt.jpg","","mooney2","image-keyboard-response","474","810835","0.0-2.0-4.78","EV","1","pretest","true","3586639","null","","",""
"544","<p>How strong was your <strong>aha-experience</strong>?</p>","","aha","html-keyboard-response","475","811381","0.0-2.0-5.78","EV","1","pretest","true","3586639","54","../img/tt/1134tt.jpg","","6"
"null","<div style=""font-size:60px;""> </div>","","fixation","html-keyboard-response","476","811586","0.0-2.0-0.79","EV","1","pretest","true","3586639","null","","",""
"null","../img/tt/1145tt.jpg","","mooney1","image-keyboard-response","477","814594","0.0-2.0-1.79","EV","1","pretest","true","3586639","null","../img/tt/1145tt.jpg","",""
"392","<p></p>","","recognized","html-keyboard-response","478","814992","0.0-2.0-2.79","EV","1","pretest","true","3586639","89","../img/tt/1145tt.jpg","y",""
"null","../img/gs/1145gs.jpg","","solution","image-keyboard-response","479","816996","0.0-2.0-3.79","EV","1","pretest","true","3586639","null","","",""
"null","../img/tt/1145tt.jpg","","mooney2","image-keyboard-response","480","819010","0.0-2.0-4.79","EV","1","pretest","true","3586639","null","","",""
"428","<p>How strong was your <strong>aha-experience</strong>?</p>","","aha","html-keyboard-response","481","819441","0.0-2.0-5.79","EV","1","pretest","true","3586639","52","../img/tt/1145tt.jpg","","4"
"null","<div style=""font-size:60px;""> </div>","","fixation","html-keyboard-response","482","819649","0.0-2.0-0.80","EV","1","pretest","true","3586639","null","","",""
"null","../img/tt/1206tt.jpg","","mooney1","image-keyboard-response","483","822652","0.0-2.0-1.80","EV","1","pretest","true","3586639","null","../img/tt/1206tt.jpg","",""
"749","<p></p>","","recognized","html-keyboard-response","484","823403","0.0-2.0-2.80","EV","1","pretest","true","3586639","78","../img/tt/1206tt.jpg","n",""
"null","../img/gs/1206gs.jpg","","solution","image-keyboard-response","485","825416","0.0-2.0-3.80","EV","1","pretest","true","3586639","null","","",""
"null","../img/tt/1206tt.jpg","","mooney2","image-keyboard-response","486","827418","0.0-2.0-4.80","EV","1","pretest","true","3586639","null","","",""
"256","<p>How strong was your <strong>aha-experience</strong>?</p>","","aha","html-keyboard-response","487","827676","0.0-2.0-5.80","EV","1","pretest","true","3586639","52","../img/tt/1206tt.jpg","","4"
"null","<div style=""font-size:60px;""> </div>","","fixation","html-keyboard-response","488","827877","0.0-2.0-0.81","EV","1","pretest","true","3586639","null","","",""
"null","../img/tt/1162tt.jpg","","mooney1","image-keyboard-response","489","830885","0.0-2.0-1.81","EV","1","pretest","true","3586639","null","../img/tt/1162tt.jpg","",""
"785","<p></p>","","recognized","html-keyboard-response","490","831671","0.0-2.0-2.81","EV","1","pretest","true","3586639","78","../img/tt/1162tt.jpg","n",""
"null","../img/gs/1162gs.jpg","","solution","image-keyboard-response","491","833686","0.0-2.0-3.81","EV","1","pretest","true","3586639","null","","",""
"null","../img/tt/1162tt.jpg","","mooney2","image-keyboard-response","492","835704","0.0-2.0-4.81","EV","1","pretest","true","3586639","null","","",""
"306","<p>How strong was your <strong>aha-experience</strong>?</p>","","aha","html-keyboard-response","493","836011","0.0-2.0-5.81","EV","1","pretest","true","3586639","52","../img/tt/1162tt.jpg","","4"
"null","<div style=""font-size:60px;""> </div>","","fixation","html-keyboard-response","494","836224","0.0-2.0-0.82","EV","1","pretest","true","3586639","null","","",""
"null","../img/tt/1006tt.jpg","","mooney1","image-keyboard-response","495","839237","0.0-2.0-1.82","EV","1","pretest","true","3586639","null","../img/tt/1006tt.jpg","",""
"446","<p></p>","","recognized","html-keyboard-response","496","839685","0.0-2.0-2.82","EV","1","pretest","true","3586639","78","../img/tt/1006tt.jpg","n",""
"null","../img/gs/1006gs.jpg","","solution","image-keyboard-response","497","841695","0.0-2.0-3.82","EV","1","pretest","true","3586639","null","","",""
"null","../img/tt/1006tt.jpg","","mooney2","image-keyboard-response","498","843713","0.0-2.0-4.82","EV","1","pretest","true","3586639","null","","",""
"820","<p>How strong was your <strong>aha-experience</strong>?</p>","","aha","html-keyboard-response","499","844536","0.0-2.0-5.82","EV","1","pretest","true","3586639","52","../img/tt/1006tt.jpg","","4"
"null","<div style=""font-size:60px;""> </div>","","fixation","html-keyboard-response","500","844738","0.0-2.0-0.83","EV","1","pretest","true","3586639","null","","",""
"null","../img/tt/1171tt.jpg","","mooney1","image-keyboard-response","501","847742","0.0-2.0-1.83","EV","1","pretest","true","3586639","null","../img/tt/1171tt.jpg","",""
"1038","<p></p>","","recognized","html-keyboard-response","502","848783","0.0-2.0-2.83","EV","1","pretest","true","3586639","78","../img/tt/1171tt.jpg","n",""
"null","../img/gs/1171gs.jpg","","solution","image-keyboard-response","503","850791","0.0-2.0-3.83","EV","1","pretest","true","3586639","null","","",""
"null","../img/tt/1171tt.jpg","","mooney2","image-keyboard-response","504","852809","0.0-2.0-4.83","EV","1","pretest","true","3586639","null","","",""
"595","<p>How strong was your <strong>aha-experience</strong>?</p>","","aha","html-keyboard-response","505","853406","0.0-2.0-5.83","EV","1","pretest","true","3586639","54","../img/tt/1171tt.jpg","","6"
"null","<div style=""font-size:60px;""> </div>","","fixation","html-keyboard-response","506","853621","0.0-2.0-0.84","EV","1","pretest","true","3586639","null","","",""
"null","../img/tt/1189tt.jpg","","mooney1","image-keyboard-response","507","856624","0.0-2.0-1.84","EV","1","pretest","true","3586639","null","../img/tt/1189tt.jpg","",""
"426","<p></p>","","recognized","html-keyboard-response","508","857052","0.0-2.0-2.84","EV","1","pretest","true","3586639","78","../img/tt/1189tt.jpg","n",""
"null","../img/gs/1189gs.jpg","","solution","image-keyboard-response","509","859057","0.0-2.0-3.84","EV","1","pretest","true","3586639","null","","",""
"null","../img/tt/1189tt.jpg","","mooney2","image-keyboard-response","510","861060","0.0-2.0-4.84","EV","1","pretest","true","3586639","null","","",""
"307","<p>How strong was your <strong>aha-experience</strong>?</p>","","aha","html-keyboard-response","511","861369","0.0-2.0-5.84","EV","1","pretest","true","3586639","51","../img/tt/1189tt.jpg","","3"
"null","<div style=""font-size:60px;""> </div>","","fixation","html-keyboard-response","512","861583","0.0-2.0-0.85","EV","1","pretest","true","3586639","null","","",""
"null","../img/tt/048tt.jpg","","mooney1","image-keyboard-response","513","864585","0.0-2.0-1.85","EV","1","pretest","true","3586639","null","../img/tt/048tt.jpg","",""
"385","<p></p>","","recognized","html-keyboard-response","514","864973","0.0-2.0-2.85","EV","1","pretest","true","3586639","78","../img/tt/048tt.jpg","n",""
"null","../img/gs/048gs.jpg","","solution","image-keyboard-response","515","866975","0.0-2.0-3.85","EV","1","pretest","true","3586639","null","","",""
"null","../img/tt/048tt.jpg","","mooney2","image-keyboard-response","516","868981","0.0-2.0-4.85","EV","1","pretest","true","3586639","null","","",""
"240","<p>How strong was your <strong>aha-experience</strong>?</p>","","aha","html-keyboard-response","517","869224","0.0-2.0-5.85","EV","1","pretest","true","3586639","49","../img/tt/048tt.jpg","","1"
"null","<div style=""font-size:60px;""> </div>","","fixation","html-keyboard-response","518","869435","0.0-2.0-0.86","EV","1","pretest","true","3586639","null","","",""
"null","../img/tt/1194tt.jpg","","mooney1","image-keyboard-response","519","872438","0.0-2.0-1.86","EV","1","pretest","true","3586639","null","../img/tt/1194tt.jpg","",""
"391","<p></p>","","recognized","html-keyboard-response","520","872831","0.0-2.0-2.86","EV","1","pretest","true","3586639","89","../img/tt/1194tt.jpg","y",""
"null","../img/gs/1194gs.jpg","","solution","image-keyboard-response","521","874841","0.0-2.0-3.86","EV","1","pretest","true","3586639","null","","",""
"null","../img/tt/1194tt.jpg","","mooney2","image-keyboard-response","522","876855","0.0-2.0-4.86","EV","1","pretest","true","3586639","null","","",""
"319","<p>How strong was your <strong>aha-experience</strong>?</p>","","aha","html-keyboard-response","523","877177","0.0-2.0-5.86","EV","1","pretest","true","3586639","53","../img/tt/1194tt.jpg","","5"
"null","<div style=""font-size:60px;""> </div>","","fixation","html-keyboard-response","524","877379","0.0-2.0-0.87","EV","1","pretest","true","3586639","null","","",""
"null","../img/tt/1049tt.jpg","","mooney1","image-keyboard-response","525","880395","0.0-2.0-1.87","EV","1","pretest","true","3586639","null","../img/tt/1049tt.jpg","",""
"538","<p></p>","","recognized","html-keyboard-response","526","880935","0.0-2.0-2.87","EV","1","pretest","true","3586639","78","../img/tt/1049tt.jpg","n",""
"null","../img/gs/1049gs.jpg","","solution","image-keyboard-response","527","882948","0.0-2.0-3.87","EV","1","pretest","true","3586639","null","","",""
"null","../img/tt/1049tt.jpg","","mooney2","image-keyboard-response","528","884966","0.0-2.0-4.87","EV","1","pretest","true","3586639","null","","",""
"314","<p>How strong was your <strong>aha-experience</strong>?</p>","","aha","html-keyboard-response","529","885281","0.0-2.0-5.87","EV","1","pretest","true","3586639","52","../img/tt/1049tt.jpg","","4"
"null","<div style=""font-size:60px;""> </div>","","fixation","html-keyboard-response","530","885492","0.0-2.0-0.88","EV","1","pretest","true","3586639","null","","",""
"null","../img/tt/1075tt.jpg","","mooney1","image-keyboard-response","531","888500","0.0-2.0-1.88","EV","1","pretest","true","3586639","null","../img/tt/1075tt.jpg","",""
"65931","<p></p>","","recognized","html-keyboard-response","532","954433","0.0-2.0-2.88","EV","1","pretest","true","3586639","78","../img/tt/1075tt.jpg","n",""
"null","../img/gs/1075gs.jpg","","solution","image-keyboard-response","533","956449","0.0-2.0-3.88","EV","1","pretest","true","3586639","null","","",""
"null","../img/tt/1075tt.jpg","","mooney2","image-keyboard-response","534","958460","0.0-2.0-4.88","EV","1","pretest","true","3586639","null","","",""
"251","<p>How strong was your <strong>aha-experience</strong>?</p>","","aha","html-keyboard-response","535","958713","0.0-2.0-5.88","EV","1","pretest","true","3586639","49","../img/tt/1075tt.jpg","","1"
"null","<div style=""font-size:60px;""> </div>","","fixation","html-keyboard-response","536","958919","0.0-2.0-0.89","EV","1","pretest","true","3586639","null","","",""
"null","../img/tt/1143tt.jpg","","mooney1","image-keyboard-response","537","961926","0.0-2.0-1.89","EV","1","pretest","true","3586639","null","../img/tt/1143tt.jpg","",""
"391","<p></p>","","recognized","html-keyboard-response","538","962318","0.0-2.0-2.89","EV","1","pretest","true","3586639","78","../img/tt/1143tt.jpg","n",""
"null","../img/gs/1143gs.jpg","","solution","image-keyboard-response","539","964321","0.0-2.0-3.89","EV","1","pretest","true","3586639","null","","",""
"null","../img/tt/1143tt.jpg","","mooney2","image-keyboard-response","540","966340","0.0-2.0-4.89","EV","1","pretest","true","3586639","null","","",""
"272","<p>How strong was your <strong>aha-experience</strong>?</p>","","aha","html-keyboard-response","541","966614","0.0-2.0-5.89","EV","1","pretest","true","3586639","50","../img/tt/1143tt.jpg","","2"
"null","<div style=""font-size:60px;""> </div>","","fixation","html-keyboard-response","542","966815","0.0-2.0-0.90","EV","1","pretest","true","3586639","null","","",""
"null","../img/tt/1190tt.jpg","","mooney1","image-keyboard-response","543","969824","0.0-2.0-1.90","EV","1","pretest","true","3586639","null","../img/tt/1190tt.jpg","",""
"1180","<p></p>","","recognized","html-keyboard-response","544","971006","0.0-2.0-2.90","EV","1","pretest","true","3586639","78","../img/tt/1190tt.jpg","n",""
"null","../img/gs/1190gs.jpg","","solution","image-keyboard-response","545","973010","0.0-2.0-3.90","EV","1","pretest","true","3586639","null","","",""
"null","../img/tt/1190tt.jpg","","mooney2","image-keyboard-response","546","975024","0.0-2.0-4.90","EV","1","pretest","true","3586639","null","","",""
"427","<p>How strong was your <strong>aha-experience</strong>?</p>","","aha","html-keyboard-response","547","975454","0.0-2.0-5.90","EV","1","pretest","true","3586639","55","../img/tt/1190tt.jpg","","7"
"null","<div style=""font-size:60px;""> </div>","","fixation","html-keyboard-response","548","975657","0.0-2.0-0.91","EV","1","pretest","true","3586639","null","","",""
"null","../img/tt/1096tt.jpg","","mooney1","image-keyboard-response","549","978667","0.0-2.0-1.91","EV","1","pretest","true","3586639","null","../img/tt/1096tt.jpg","",""
"488","<p></p>","","recognized","html-keyboard-response","550","979156","0.0-2.0-2.91","EV","1","pretest","true","3586639","78","../img/tt/1096tt.jpg","n",""
"null","../img/gs/1096gs.jpg","","solution","image-keyboard-response","551","981162","0.0-2.0-3.91","EV","1","pretest","true","3586639","null","","",""
"null","../img/tt/1096tt.jpg","","mooney2","image-keyboard-response","552","983172","0.0-2.0-4.91","EV","1","pretest","true","3586639","null","","",""
"273","<p>How strong was your <strong>aha-experience</strong>?</p>","","aha","html-keyboard-response","553","983448","0.0-2.0-5.91","EV","1","pretest","true","3586639","54","../img/tt/1096tt.jpg","","6"
"null","<div style=""font-size:60px;""> </div>","","fixation","html-keyboard-response","554","983664","0.0-2.0-0.92","EV","1","pretest","true","3586639","null","","",""
"null","../img/tt/1033tt.jpg","","mooney1","image-keyboard-response","555","986671","0.0-2.0-1.92","EV","1","pretest","true","3586639","null","../img/tt/1033tt.jpg","",""
"500","<p></p>","","recognized","html-keyboard-response","556","987174","0.0-2.0-2.92","EV","1","pretest","true","3586639","78","../img/tt/1033tt.jpg","n",""
"null","../img/gs/1033gs.jpg","","solution","image-keyboard-response","557","989190","0.0-2.0-3.92","EV","1","pretest","true","3586639","null","","",""
"null","../img/tt/1033tt.jpg","","mooney2","image-keyboard-response","558","991201","0.0-2.0-4.92","EV","1","pretest","true","3586639","null","","",""
"344","<p>How strong was your <strong>aha-experience</strong>?</p>","","aha","html-keyboard-response","559","991548","0.0-2.0-5.92","EV","1","pretest","true","3586639","51","../img/tt/1033tt.jpg","","3"
"null","<div style=""font-size:60px;""> </div>","","fixation","html-keyboard-response","560","991749","0.0-2.0-0.93","EV","1","pretest","true","3586639","null","","",""
"null","../img/tt/1053tt.jpg","","mooney1","image-keyboard-response","561","994761","0.0-2.0-1.93","EV","1","pretest","true","3586639","null","../img/tt/1053tt.jpg","",""
"598","<p></p>","","recognized","html-keyboard-response","562","995361","0.0-2.0-2.93","EV","1","pretest","true","3586639","89","../img/tt/1053tt.jpg","y",""
"null","../img/gs/1053gs.jpg","","solution","image-keyboard-response","563","997364","0.0-2.0-3.93","EV","1","pretest","true","3586639","null","","",""
"null","../img/tt/1053tt.jpg","","mooney2","image-keyboard-response","564","999370","0.0-2.0-4.93","EV","1","pretest","true","3586639","null","","",""
"1495","<p>How strong was your <strong>aha-experience</strong>?</p>","","aha","html-keyboard-response","565","1000867","0.0-2.0-5.93","EV","1","pretest","true","3586639","51","../img/tt/1053tt.jpg","","3"
"null","<div style=""font-size:60px;""> </div>","","fixation","html-keyboard-response","566","1001069","0.0-2.0-0.94","EV","1","pretest","true","3586639","null","","",""
"null","../img/tt/033tt.jpg","","mooney1","image-keyboard-response","567","1004082","0.0-2.0-1.94","EV","1","pretest","true","3586639","null","../img/tt/033tt.jpg","",""
"343","<p></p>","","recognized","html-keyboard-response","568","1004427","0.0-2.0-2.94","EV","1","pretest","true","3586639","78","../img/tt/033tt.jpg","n",""
"null","../img/gs/033gs.jpg","","solution","image-keyboard-response","569","1006438","0.0-2.0-3.94","EV","1","pretest","true","3586639","null","","",""
