"rt","stimulus","button_pressed","test_part","trial_type","trial_index","time_elapsed","internal_node_id","subject","session","experiment_name","complete","totalTime","key_press","currentStim","recognized","aha"
"16277","<div style='word-wrap: break-word; width: 900px'><h3>Please consider this information carefully before deciding whether to participate in this research</h3><ul style='text-align: left; font-size: .8em;'><li><b>Purpose of the research</b>: To examine how people process images.</li><li><b>What you will do in this research</b>:  Stimuli (images) will be presented on the computer and you will be asked different questions about them.</li><li><b>Time required</b>: Participation will take max 60 minutes to complete.</li><li><b>Risks</b>:  There are no anticipated risks associated with participating in this study. The effects of participating should be comparable to those you would experience from viewing a computer monitor for 60 minutes and using a mouse or keyboard.</li><li><b>Benefits</b>:  This study provides no benefits to you individually. The study provides important information about the nature of perception and learning.</li><li><b>Confidentiality</b>:  Your participation in this study will remain confidential. No personally identifiable information will be associated with your data. Your de-identified data may be shared with other researchers and used in future projects.</li><li><b>Participation and withdrawal</b>:  Your participation in this study is completely voluntary and you may refuse to participate or you may choose to withdraw at any time without penalty.</li><li><b>How to contact the researchers</b>: If you have questions or concerns about your participation or payment, or want to request a summary of research findings, please contact Sander Van de Cruys (KU Leuven), at sander.vandecruys@kuleuven.be.</li></ul><p>The nature and purpose of this research have been sufficiently explained and I agree to participate in this study.  I understand that I am free to withdraw at any time without incurring any penalty.</p><p>Please consent by clicking the button below to continue. Otherwise, please exit the study at this time.</p></div>","0","instructions","html-button-response","0","16281","0.0-0.0","EV","2","pretest","true","3496286","","","",""
"28030","<div style='word-wrap: break-word; width: 900px'><h3>Instructions</h3><p>In this experiment you will see a series of distorted images like the one below on the left. As you can see in the righthand image, the distorted images are derived from actual photographs.In what follows, you will <strong>briefly</strong> be presented with <strong>only</strong> the distorted image.</p> <div style='float: left; margin-right: 20px;'><img src='../img/018tt.jpg' height='250' width='250'></img></div><div style='float: right; margin-left: 20px;'><img src='../img/018gs.jpg' height='250' width='250'></img></div><p>To be useful for future research, we need to select those images that people can generally not solve on their own. Therefore we'll show you the distorted image and ask you to indicate (yes or no) whether you already recognized what was in the image. This is not a competition, so please respond truthfully. We don't ask or check your answer, we just want to know whether you think you recognized it. All images depict objects from one of these broad level categories: animals, inanimate objects, plants, sports, vehicles, and food. Recognizing means knowing more than these broad labels for a given image. It means knowing at least the basic level category of the main object in the image, for example when you see a parrot in the image, 'parrot' will obviously be a correct answer but also correct is 'bird', but not 'animal' (the broad level category). For the example above, 'rose' would be correct or 'flower', but not 'plant'. When soccer players are depicted, you don't recognize the image when you just see 'humans', 'outdoors', or 'sports'. Note that complete certainty about your answer is not necessary, it's enough to have a good, definite guess on the object, to say 'yes, I recognized it'.</p><p>One additional question will be asked after we've revealed the solution: You'll be asked to indicate how strong your <strong>aha-experience</strong> was. This describes the positive 'click' you sometimes experience, when the pieces of the 'puzzle' fall together and you suddenly have 'insight' in the image. It describes how good you felt the 'fit' was between the distorted image and the solution.</p><p>Press any key to start.</p></div>","","instructions","html-keyboard-response","1","44313","0.0-1.0","EV","2","pretest","true","3496286","74","","",""
"null","<div style=""font-size:60px;""> </div>","","fixation","html-keyboard-response","2","44516","0.0-2.0-0.0","EV","2","pretest","true","3496286","null","","",""
"null","../img/tt/515tt.jpg","","mooney1","image-keyboard-response","3","47521","0.0-2.0-1.0","EV","2","pretest","true","3496286","null","../img/tt/515tt.jpg","",""
"470","<p></p>","","recognized","html-keyboard-response","4","47993","0.0-2.0-2.0","EV","2","pretest","true","3496286","78","../img/tt/515tt.jpg","n",""
"null","../img/gs/515gs.jpg","","solution","image-keyboard-response","5","49996","0.0-2.0-3.0","EV","2","pretest","true","3496286","null","","",""
"null","../img/tt/515tt.jpg","","mooney2","image-keyboard-response","6","51999","0.0-2.0-4.0","EV","2","pretest","true","3496286","null","","",""
"255","<p>How strong was your <strong>aha-experience</strong>?</p>","","aha","html-keyboard-response","7","52256","0.0-2.0-5.0","EV","2","pretest","true","3496286","52","../img/tt/515tt.jpg","","4"
"null","<div style=""font-size:60px;""> </div>","","fixation","html-keyboard-response","8","52460","0.0-2.0-0.1","EV","2","pretest","true","3496286","null","","",""
"null","../img/tt/186tt.jpg","","mooney1","image-keyboard-response","9","55462","0.0-2.0-1.1","EV","2","pretest","true","3496286","null","../img/tt/186tt.jpg","",""
"330","<p></p>","","recognized","html-keyboard-response","10","55793","0.0-2.0-2.1","EV","2","pretest","true","3496286","89","../img/tt/186tt.jpg","y",""
"null","../img/gs/186gs.jpg","","solution","image-keyboard-response","11","57795","0.0-2.0-3.1","EV","2","pretest","true","3496286","null","","",""
"null","../img/tt/186tt.jpg","","mooney2","image-keyboard-response","12","59798","0.0-2.0-4.1","EV","2","pretest","true","3496286","null","","",""
"226","<p>How strong was your <strong>aha-experience</strong>?</p>","","aha","html-keyboard-response","13","60025","0.0-2.0-5.1","EV","2","pretest","true","3496286","51","../img/tt/186tt.jpg","","3"
"null","<div style=""font-size:60px;""> </div>","","fixation","html-keyboard-response","14","60228","0.0-2.0-0.2","EV","2","pretest","true","3496286","null","","",""
"null","../img/tt/260tt.jpg","","mooney1","image-keyboard-response","15","63230","0.0-2.0-1.2","EV","2","pretest","true","3496286","null","../img/tt/260tt.jpg","",""
"311","<p></p>","","recognized","html-keyboard-response","16","63543","0.0-2.0-2.2","EV","2","pretest","true","3496286","78","../img/tt/260tt.jpg","n",""
"null","../img/gs/260gs.jpg","","solution","image-keyboard-response","17","65546","0.0-2.0-3.2","EV","2","pretest","true","3496286","null","","",""
"null","../img/tt/260tt.jpg","","mooney2","image-keyboard-response","18","67548","0.0-2.0-4.2","EV","2","pretest","true","3496286","null","","",""
"498","<p>How strong was your <strong>aha-experience</strong>?</p>","","aha","html-keyboard-response","19","68049","0.0-2.0-5.2","EV","2","pretest","true","3496286","51","../img/tt/260tt.jpg","","3"
"null","<div style=""font-size:60px;""> </div>","","fixation","html-keyboard-response","20","68251","0.0-2.0-0.3","EV","2","pretest","true","3496286","null","","",""
"null","../img/tt/1302tt.jpg","","mooney1","image-keyboard-response","21","71254","0.0-2.0-1.3","EV","2","pretest","true","3496286","null","../img/tt/1302tt.jpg","",""
"281","<p></p>","","recognized","html-keyboard-response","22","71537","0.0-2.0-2.3","EV","2","pretest","true","3496286","78","../img/tt/1302tt.jpg","n",""
"null","../img/gs/1302gs.jpg","","solution","image-keyboard-response","23","73540","0.0-2.0-3.3","EV","2","pretest","true","3496286","null","","",""
"null","../img/tt/1302tt.jpg","","mooney2","image-keyboard-response","24","75542","0.0-2.0-4.3","EV","2","pretest","true","3496286","null","","",""
"287","<p>How strong was your <strong>aha-experience</strong>?</p>","","aha","html-keyboard-response","25","75831","0.0-2.0-5.3","EV","2","pretest","true","3496286","54","../img/tt/1302tt.jpg","","6"
"null","<div style=""font-size:60px;""> </div>","","fixation","html-keyboard-response","26","76034","0.0-2.0-0.4","EV","2","pretest","true","3496286","null","","",""
"null","../img/tt/532tt.jpg","","mooney1","image-keyboard-response","27","79037","0.0-2.0-1.4","EV","2","pretest","true","3496286","null","../img/tt/532tt.jpg","",""
"211","<p></p>","","recognized","html-keyboard-response","28","79250","0.0-2.0-2.4","EV","2","pretest","true","3496286","89","../img/tt/532tt.jpg","y",""
"null","../img/gs/532gs.jpg","","solution","image-keyboard-response","29","81252","0.0-2.0-3.4","EV","2","pretest","true","3496286","null","","",""
"null","../img/tt/532tt.jpg","","mooney2","image-keyboard-response","30","83255","0.0-2.0-4.4","EV","2","pretest","true","3496286","null","","",""
"40","<p>How strong was your <strong>aha-experience</strong>?</p>","","aha","html-keyboard-response","31","83297","0.0-2.0-5.4","EV","2","pretest","true","3496286","51","../img/tt/532tt.jpg","","3"
"null","<div style=""font-size:60px;""> </div>","","fixation","html-keyboard-response","32","83498","0.0-2.0-0.5","EV","2","pretest","true","3496286","null","","",""
"null","../img/tt/1347tt.jpg","","mooney1","image-keyboard-response","33","86500","0.0-2.0-1.5","EV","2","pretest","true","3496286","null","../img/tt/1347tt.jpg","",""
"410","<p></p>","","recognized","html-keyboard-response","34","86912","0.0-2.0-2.5","EV","2","pretest","true","3496286","78","../img/tt/1347tt.jpg","n",""
"null","../img/gs/1347gs.jpg","","solution","image-keyboard-response","35","88915","0.0-2.0-3.5","EV","2","pretest","true","3496286","null","","",""
"null","../img/tt/1347tt.jpg","","mooney2","image-keyboard-response","36","90917","0.0-2.0-4.5","EV","2","pretest","true","3496286","null","","",""
"226","<p>How strong was your <strong>aha-experience</strong>?</p>","","aha","html-keyboard-response","37","91146","0.0-2.0-5.5","EV","2","pretest","true","3496286","52","../img/tt/1347tt.jpg","","4"
"null","<div style=""font-size:60px;""> </div>","","fixation","html-keyboard-response","38","91348","0.0-2.0-0.6","EV","2","pretest","true","3496286","null","","",""
"null","../img/tt/245tt.jpg","","mooney1","image-keyboard-response","39","94351","0.0-2.0-1.6","EV","2","pretest","true","3496286","null","../img/tt/245tt.jpg","",""
"333","<p></p>","","recognized","html-keyboard-response","40","94686","0.0-2.0-2.6","EV","2","pretest","true","3496286","78","../img/tt/245tt.jpg","n",""
"null","../img/gs/245gs.jpg","","solution","image-keyboard-response","41","96688","0.0-2.0-3.6","EV","2","pretest","true","3496286","null","","",""
"null","../img/tt/245tt.jpg","","mooney2","image-keyboard-response","42","98691","0.0-2.0-4.6","EV","2","pretest","true","3496286","null","","",""
"288","<p>How strong was your <strong>aha-experience</strong>?</p>","","aha","html-keyboard-response","43","98980","0.0-2.0-5.6","EV","2","pretest","true","3496286","50","../img/tt/245tt.jpg","","2"
"null","<div style=""font-size:60px;""> </div>","","fixation","html-keyboard-response","44","99182","0.0-2.0-0.7","EV","2","pretest","true","3496286","null","","",""
"null","../img/tt/297tt.jpg","","mooney1","image-keyboard-response","45","102185","0.0-2.0-1.7","EV","2","pretest","true","3496286","null","../img/tt/297tt.jpg","",""
"301","<p></p>","","recognized","html-keyboard-response","46","102488","0.0-2.0-2.7","EV","2","pretest","true","3496286","89","../img/tt/297tt.jpg","y",""
"null","../img/gs/297gs.jpg","","solution","image-keyboard-response","47","104490","0.0-2.0-3.7","EV","2","pretest","true","3496286","null","","",""
"null","../img/tt/297tt.jpg","","mooney2","image-keyboard-response","48","106493","0.0-2.0-4.7","EV","2","pretest","true","3496286","null","","",""
"296","<p>How strong was your <strong>aha-experience</strong>?</p>","","aha","html-keyboard-response","49","106791","0.0-2.0-5.7","EV","2","pretest","true","3496286","49","../img/tt/297tt.jpg","","1"
"null","<div style=""font-size:60px;""> </div>","","fixation","html-keyboard-response","50","106993","0.0-2.0-0.8","EV","2","pretest","true","3496286","null","","",""
"null","../img/tt/249tt.jpg","","mooney1","image-keyboard-response","51","109995","0.0-2.0-1.8","EV","2","pretest","true","3496286","null","../img/tt/249tt.jpg","",""
"388","<p></p>","","recognized","html-keyboard-response","52","110385","0.0-2.0-2.8","EV","2","pretest","true","3496286","78","../img/tt/249tt.jpg","n",""
"null","../img/gs/249gs.jpg","","solution","image-keyboard-response","53","112387","0.0-2.0-3.8","EV","2","pretest","true","3496286","null","","",""
"null","../img/tt/249tt.jpg","","mooney2","image-keyboard-response","54","114390","0.0-2.0-4.8","EV","2","pretest","true","3496286","null","","",""
"277","<p>How strong was your <strong>aha-experience</strong>?</p>","","aha","html-keyboard-response","55","114670","0.0-2.0-5.8","EV","2","pretest","true","3496286","50","../img/tt/249tt.jpg","","2"
"null","<div style=""font-size:60px;""> </div>","","fixation","html-keyboard-response","56","114871","0.0-2.0-0.9","EV","2","pretest","true","3496286","null","","",""
"null","../img/tt/1340tt.jpg","","mooney1","image-keyboard-response","57","117873","0.0-2.0-1.9","EV","2","pretest","true","3496286","null","../img/tt/1340tt.jpg","",""
"253","<p></p>","","recognized","html-keyboard-response","58","118128","0.0-2.0-2.9","EV","2","pretest","true","3496286","89","../img/tt/1340tt.jpg","y",""
"null","../img/gs/1340gs.jpg","","solution","image-keyboard-response","59","120130","0.0-2.0-3.9","EV","2","pretest","true","3496286","null","","",""
"null","../img/tt/1340tt.jpg","","mooney2","image-keyboard-response","60","122132","0.0-2.0-4.9","EV","2","pretest","true","3496286","null","","",""
"318","<p>How strong was your <strong>aha-experience</strong>?</p>","","aha","html-keyboard-response","61","122453","0.0-2.0-5.9","EV","2","pretest","true","3496286","52","../img/tt/1340tt.jpg","","4"
"null","<div style=""font-size:60px;""> </div>","","fixation","html-keyboard-response","62","122656","0.0-2.0-0.10","EV","2","pretest","true","3496286","null","","",""
"null","../img/tt/583tt.jpg","","mooney1","image-keyboard-response","63","125658","0.0-2.0-1.10","EV","2","pretest","true","3496286","null","../img/tt/583tt.jpg","",""
"339","<p></p>","","recognized","html-keyboard-response","64","125999","0.0-2.0-2.10","EV","2","pretest","true","3496286","89","../img/tt/583tt.jpg","y",""
"null","../img/gs/583gs.jpg","","solution","image-keyboard-response","65","128001","0.0-2.0-3.10","EV","2","pretest","true","3496286","null","","",""
"null","../img/tt/583tt.jpg","","mooney2","image-keyboard-response","66","130004","0.0-2.0-4.10","EV","2","pretest","true","3496286","null","","",""
"155","<p>How strong was your <strong>aha-experience</strong>?</p>","","aha","html-keyboard-response","67","130160","0.0-2.0-5.10","EV","2","pretest","true","3496286","51","../img/tt/583tt.jpg","","3"
"null","<div style=""font-size:60px;""> </div>","","fixation","html-keyboard-response","68","130362","0.0-2.0-0.11","EV","2","pretest","true","3496286","null","","",""
"null","../img/tt/206tt.jpg","","mooney1","image-keyboard-response","69","133370","0.0-2.0-1.11","EV","2","pretest","true","3496286","null","../img/tt/206tt.jpg","",""
"410","<p></p>","","recognized","html-keyboard-response","70","133782","0.0-2.0-2.11","EV","2","pretest","true","3496286","78","../img/tt/206tt.jpg","n",""
"null","../img/gs/206gs.jpg","","solution","image-keyboard-response","71","135786","0.0-2.0-3.11","EV","2","pretest","true","3496286","null","","",""
"null","../img/tt/206tt.jpg","","mooney2","image-keyboard-response","72","137788","0.0-2.0-4.11","EV","2","pretest","true","3496286","null","","",""
"104","<p>How strong was your <strong>aha-experience</strong>?</p>","","aha","html-keyboard-response","73","137893","0.0-2.0-5.11","EV","2","pretest","true","3496286","52","../img/tt/206tt.jpg","","4"
"null","<div style=""font-size:60px;""> </div>","","fixation","html-keyboard-response","74","138095","0.0-2.0-0.12","EV","2","pretest","true","3496286","null","","",""
"null","../img/tt/159tt.jpg","","mooney1","image-keyboard-response","75","141097","0.0-2.0-1.12","EV","2","pretest","true","3496286","null","../img/tt/159tt.jpg","",""
"274","<p></p>","","recognized","html-keyboard-response","76","141372","0.0-2.0-2.12","EV","2","pretest","true","3496286","89","../img/tt/159tt.jpg","y",""
"null","../img/gs/159gs.jpg","","solution","image-keyboard-response","77","143375","0.0-2.0-3.12","EV","2","pretest","true","3496286","null","","",""
"null","../img/tt/159tt.jpg","","mooney2","image-keyboard-response","78","145378","0.0-2.0-4.12","EV","2","pretest","true","3496286","null","","",""
"274","<p>How strong was your <strong>aha-experience</strong>?</p>","","aha","html-keyboard-response","79","145652","0.0-2.0-5.12","EV","2","pretest","true","3496286","52","../img/tt/159tt.jpg","","4"
"null","<div style=""font-size:60px;""> </div>","","fixation","html-keyboard-response","80","145855","0.0-2.0-0.13","EV","2","pretest","true","3496286","null","","",""
"null","../img/tt/596tt.jpg","","mooney1","image-keyboard-response","81","148858","0.0-2.0-1.13","EV","2","pretest","true","3496286","null","../img/tt/596tt.jpg","",""
"262","<p></p>","","recognized","html-keyboard-response","82","149122","0.0-2.0-2.13","EV","2","pretest","true","3496286","89","../img/tt/596tt.jpg","y",""
"null","../img/gs/596gs.jpg","","solution","image-keyboard-response","83","151124","0.0-2.0-3.13","EV","2","pretest","true","3496286","null","","",""
"null","../img/tt/596tt.jpg","","mooney2","image-keyboard-response","84","153128","0.0-2.0-4.13","EV","2","pretest","true","3496286","null","","",""
"255","<p>How strong was your <strong>aha-experience</strong>?</p>","","aha","html-keyboard-response","85","153384","0.0-2.0-5.13","EV","2","pretest","true","3496286","53","../img/tt/596tt.jpg","","5"
"null","<div style=""font-size:60px;""> </div>","","fixation","html-keyboard-response","86","153587","0.0-2.0-0.14","EV","2","pretest","true","3496286","null","","",""
"null","../img/tt/143tt.jpg","","mooney1","image-keyboard-response","87","156590","0.0-2.0-1.14","EV","2","pretest","true","3496286","null","../img/tt/143tt.jpg","",""
"286","<p></p>","","recognized","html-keyboard-response","88","156878","0.0-2.0-2.14","EV","2","pretest","true","3496286","78","../img/tt/143tt.jpg","n",""
"null","../img/gs/143gs.jpg","","solution","image-keyboard-response","89","158882","0.0-2.0-3.14","EV","2","pretest","true","3496286","null","","",""
"null","../img/tt/143tt.jpg","","mooney2","image-keyboard-response","90","160884","0.0-2.0-4.14","EV","2","pretest","true","3496286","null","","",""
"546","<p>How strong was your <strong>aha-experience</strong>?</p>","","aha","html-keyboard-response","91","161432","0.0-2.0-5.14","EV","2","pretest","true","3496286","49","../img/tt/143tt.jpg","","1"
"null","<div style=""font-size:60px;""> </div>","","fixation","html-keyboard-response","92","161634","0.0-2.0-0.15","EV","2","pretest","true","3496286","null","","",""
"null","../img/tt/130tt.jpg","","mooney1","image-keyboard-response","93","164637","0.0-2.0-1.15","EV","2","pretest","true","3496286","null","../img/tt/130tt.jpg","",""
"318","<p></p>","","recognized","html-keyboard-response","94","164956","0.0-2.0-2.15","EV","2","pretest","true","3496286","89","../img/tt/130tt.jpg","y",""
"null","../img/gs/130gs.jpg","","solution","image-keyboard-response","95","166959","0.0-2.0-3.15","EV","2","pretest","true","3496286","null","","",""
"null","../img/tt/130tt.jpg","","mooney2","image-keyboard-response","96","168961","0.0-2.0-4.15","EV","2","pretest","true","3496286","null","","",""
"4","<p>How strong was your <strong>aha-experience</strong>?</p>","","aha","html-keyboard-response","97","168966","0.0-2.0-5.15","EV","2","pretest","true","3496286","51","../img/tt/130tt.jpg","","3"
"null","<div style=""font-size:60px;""> </div>","","fixation","html-keyboard-response","98","169168","0.0-2.0-0.16","EV","2","pretest","true","3496286","null","","",""
"null","../img/tt/601tt.jpg","","mooney1","image-keyboard-response","99","172172","0.0-2.0-1.16","EV","2","pretest","true","3496286","null","../img/tt/601tt.jpg","",""
"379","<p></p>","","recognized","html-keyboard-response","100","172553","0.0-2.0-2.16","EV","2","pretest","true","3496286","78","../img/tt/601tt.jpg","n",""
"null","../img/gs/601gs.jpg","","solution","image-keyboard-response","101","174556","0.0-2.0-3.16","EV","2","pretest","true","3496286","null","","",""
"null","../img/tt/601tt.jpg","","mooney2","image-keyboard-response","102","176558","0.0-2.0-4.16","EV","2","pretest","true","3496286","null","","",""
"227","<p>How strong was your <strong>aha-experience</strong>?</p>","","aha","html-keyboard-response","103","176786","0.0-2.0-5.16","EV","2","pretest","true","3496286","50","../img/tt/601tt.jpg","","2"
"null","<div style=""font-size:60px;""> </div>","","fixation","html-keyboard-response","104","176990","0.0-2.0-0.17","EV","2","pretest","true","3496286","null","","",""
"null","../img/tt/238tt.jpg","","mooney1","image-keyboard-response","105","179992","0.0-2.0-1.17","EV","2","pretest","true","3496286","null","../img/tt/238tt.jpg","",""
"260","<p></p>","","recognized","html-keyboard-response","106","180254","0.0-2.0-2.17","EV","2","pretest","true","3496286","78","../img/tt/238tt.jpg","n",""
"null","../img/gs/238gs.jpg","","solution","image-keyboard-response","107","182256","0.0-2.0-3.17","EV","2","pretest","true","3496286","null","","",""
"null","../img/tt/238tt.jpg","","mooney2","image-keyboard-response","108","184258","0.0-2.0-4.17","EV","2","pretest","true","3496286","null","","",""
"285","<p>How strong was your <strong>aha-experience</strong>?</p>","","aha","html-keyboard-response","109","184544","0.0-2.0-5.17","EV","2","pretest","true","3496286","52","../img/tt/238tt.jpg","","4"
"null","<div style=""font-size:60px;""> </div>","","fixation","html-keyboard-response","110","184747","0.0-2.0-0.18","EV","2","pretest","true","3496286","null","","",""
"null","../img/tt/265tt.jpg","","mooney1","image-keyboard-response","111","187750","0.0-2.0-1.18","EV","2","pretest","true","3496286","null","../img/tt/265tt.jpg","",""
"1110","<p></p>","","recognized","html-keyboard-response","112","188861","0.0-2.0-2.18","EV","2","pretest","true","3496286","78","../img/tt/265tt.jpg","n",""
"null","../img/gs/265gs.jpg","","solution","image-keyboard-response","113","190864","0.0-2.0-3.18","EV","2","pretest","true","3496286","null","","",""
"null","../img/tt/265tt.jpg","","mooney2","image-keyboard-response","114","192867","0.0-2.0-4.18","EV","2","pretest","true","3496286","null","","",""
"340","<p>How strong was your <strong>aha-experience</strong>?</p>","","aha","html-keyboard-response","115","193207","0.0-2.0-5.18","EV","2","pretest","true","3496286","53","../img/tt/265tt.jpg","","5"
"null","<div style=""font-size:60px;""> </div>","","fixation","html-keyboard-response","116","193409","0.0-2.0-0.19","EV","2","pretest","true","3496286","null","","",""
"null","../img/tt/504tt.jpg","","mooney1","image-keyboard-response","117","196411","0.0-2.0-1.19","EV","2","pretest","true","3496286","null","../img/tt/504tt.jpg","",""
"417","<p></p>","","recognized","html-keyboard-response","118","196830","0.0-2.0-2.19","EV","2","pretest","true","3496286","89","../img/tt/504tt.jpg","y",""
"null","../img/gs/504gs.jpg","","solution","image-keyboard-response","119","198834","0.0-2.0-3.19","EV","2","pretest","true","3496286","null","","",""
"null","../img/tt/504tt.jpg","","mooney2","image-keyboard-response","120","200837","0.0-2.0-4.19","EV","2","pretest","true","3496286","null","","",""
"355","<p>How strong was your <strong>aha-experience</strong>?</p>","","aha","html-keyboard-response","121","201193","0.0-2.0-5.19","EV","2","pretest","true","3496286","53","../img/tt/504tt.jpg","","5"
"null","<div style=""font-size:60px;""> </div>","","fixation","html-keyboard-response","122","201395","0.0-2.0-0.20","EV","2","pretest","true","3496286","null","","",""
"null","../img/tt/381tt.jpg","","mooney1","image-keyboard-response","123","204398","0.0-2.0-1.20","EV","2","pretest","true","3496286","null","../img/tt/381tt.jpg","",""
"386","<p></p>","","recognized","html-keyboard-response","124","204785","0.0-2.0-2.20","EV","2","pretest","true","3496286","78","../img/tt/381tt.jpg","n",""
"null","../img/gs/381gs.jpg","","solution","image-keyboard-response","125","206789","0.0-2.0-3.20","EV","2","pretest","true","3496286","null","","",""
"null","../img/tt/381tt.jpg","","mooney2","image-keyboard-response","126","208792","0.0-2.0-4.20","EV","2","pretest","true","3496286","null","","",""
"702","<p>How strong was your <strong>aha-experience</strong>?</p>","","aha","html-keyboard-response","127","209496","0.0-2.0-5.20","EV","2","pretest","true","3496286","53","../img/tt/381tt.jpg","","5"
"null","<div style=""font-size:60px;""> </div>","","fixation","html-keyboard-response","128","209697","0.0-2.0-0.21","EV","2","pretest","true","3496286","null","","",""
"null","../img/tt/556tt.jpg","","mooney1","image-keyboard-response","129","212700","0.0-2.0-1.21","EV","2","pretest","true","3496286","null","../img/tt/556tt.jpg","",""
"222","<p></p>","","recognized","html-keyboard-response","130","212923","0.0-2.0-2.21","EV","2","pretest","true","3496286","78","../img/tt/556tt.jpg","n",""
"null","../img/gs/556gs.jpg","","solution","image-keyboard-response","131","214926","0.0-2.0-3.21","EV","2","pretest","true","3496286","null","","",""
"null","../img/tt/556tt.jpg","","mooney2","image-keyboard-response","132","216928","0.0-2.0-4.21","EV","2","pretest","true","3496286","null","","",""
"132","<p>How strong was your <strong>aha-experience</strong>?</p>","","aha","html-keyboard-response","133","217062","0.0-2.0-5.21","EV","2","pretest","true","3496286","50","../img/tt/556tt.jpg","","2"
"null","<div style=""font-size:60px;""> </div>","","fixation","html-keyboard-response","134","217264","0.0-2.0-0.22","EV","2","pretest","true","3496286","null","","",""
"null","../img/tt/318tt.jpg","","mooney1","image-keyboard-response","135","220266","0.0-2.0-1.22","EV","2","pretest","true","3496286","null","../img/tt/318tt.jpg","",""
"354","<p></p>","","recognized","html-keyboard-response","136","220621","0.0-2.0-2.22","EV","2","pretest","true","3496286","78","../img/tt/318tt.jpg","n",""
"null","../img/gs/318gs.jpg","","solution","image-keyboard-response","137","222623","0.0-2.0-3.22","EV","2","pretest","true","3496286","null","","",""
"null","../img/tt/318tt.jpg","","mooney2","image-keyboard-response","138","224625","0.0-2.0-4.22","EV","2","pretest","true","3496286","null","","",""
"266","<p>How strong was your <strong>aha-experience</strong>?</p>","","aha","html-keyboard-response","139","224892","0.0-2.0-5.22","EV","2","pretest","true","3496286","52","../img/tt/318tt.jpg","","4"
"null","<div style=""font-size:60px;""> </div>","","fixation","html-keyboard-response","140","225094","0.0-2.0-0.23","EV","2","pretest","true","3496286","null","","",""
"null","../img/tt/1305tt.jpg","","mooney1","image-keyboard-response","141","228097","0.0-2.0-1.23","EV","2","pretest","true","3496286","null","../img/tt/1305tt.jpg","",""
"275","<p></p>","","recognized","html-keyboard-response","142","228373","0.0-2.0-2.23","EV","2","pretest","true","3496286","89","../img/tt/1305tt.jpg","y",""
"null","../img/gs/1305gs.jpg","","solution","image-keyboard-response","143","230376","0.0-2.0-3.23","EV","2","pretest","true","3496286","null","","",""
"null","../img/tt/1305tt.jpg","","mooney2","image-keyboard-response","144","232377","0.0-2.0-4.23","EV","2","pretest","true","3496286","null","","",""
"265","<p>How strong was your <strong>aha-experience</strong>?</p>","","aha","html-keyboard-response","145","232644","0.0-2.0-5.23","EV","2","pretest","true","3496286","51","../img/tt/1305tt.jpg","","3"
"null","<div style=""font-size:60px;""> </div>","","fixation","html-keyboard-response","146","232847","0.0-2.0-0.24","EV","2","pretest","true","3496286","null","","",""
"null","../img/tt/338tt.jpg","","mooney1","image-keyboard-response","147","235850","0.0-2.0-1.24","EV","2","pretest","true","3496286","null","../img/tt/338tt.jpg","",""
"401","<p></p>","","recognized","html-keyboard-response","148","236253","0.0-2.0-2.24","EV","2","pretest","true","3496286","78","../img/tt/338tt.jpg","n",""
"null","../img/gs/338gs.jpg","","solution","image-keyboard-response","149","238255","0.0-2.0-3.24","EV","2","pretest","true","3496286","null","","",""
"null","../img/tt/338tt.jpg","","mooney2","image-keyboard-response","150","240257","0.0-2.0-4.24","EV","2","pretest","true","3496286","null","","",""
"294","<p>How strong was your <strong>aha-experience</strong>?</p>","","aha","html-keyboard-response","151","240552","0.0-2.0-5.24","EV","2","pretest","true","3496286","52","../img/tt/338tt.jpg","","4"
"null","<div style=""font-size:60px;""> </div>","","fixation","html-keyboard-response","152","240754","0.0-2.0-0.25","EV","2","pretest","true","3496286","null","","",""
"null","../img/tt/417tt.jpg","","mooney1","image-keyboard-response","153","243757","0.0-2.0-1.25","EV","2","pretest","true","3496286","null","../img/tt/417tt.jpg","",""
"358","<p></p>","","recognized","html-keyboard-response","154","244117","0.0-2.0-2.25","EV","2","pretest","true","3496286","78","../img/tt/417tt.jpg","n",""
"null","../img/gs/417gs.jpg","","solution","image-keyboard-response","155","246119","0.0-2.0-3.25","EV","2","pretest","true","3496286","null","","",""
"null","../img/tt/417tt.jpg","","mooney2","image-keyboard-response","156","248121","0.0-2.0-4.25","EV","2","pretest","true","3496286","null","","",""
"271","<p>How strong was your <strong>aha-experience</strong>?</p>","","aha","html-keyboard-response","157","248394","0.0-2.0-5.25","EV","2","pretest","true","3496286","53","../img/tt/417tt.jpg","","5"
"null","<div style=""font-size:60px;""> </div>","","fixation","html-keyboard-response","158","248596","0.0-2.0-0.26","EV","2","pretest","true","3496286","null","","",""
"null","../img/tt/584tt.jpg","","mooney1","image-keyboard-response","159","251599","0.0-2.0-1.26","EV","2","pretest","true","3496286","null","../img/tt/584tt.jpg","",""
"233","<p></p>","","recognized","html-keyboard-response","160","251834","0.0-2.0-2.26","EV","2","pretest","true","3496286","89","../img/tt/584tt.jpg","y",""
"null","../img/gs/584gs.jpg","","solution","image-keyboard-response","161","253838","0.0-2.0-3.26","EV","2","pretest","true","3496286","null","","",""
"null","../img/tt/584tt.jpg","","mooney2","image-keyboard-response","162","255841","0.0-2.0-4.26","EV","2","pretest","true","3496286","null","","",""
"329","<p>How strong was your <strong>aha-experience</strong>?</p>","","aha","html-keyboard-response","163","256172","0.0-2.0-5.26","EV","2","pretest","true","3496286","51","../img/tt/584tt.jpg","","3"
"null","<div style=""font-size:60px;""> </div>","","fixation","html-keyboard-response","164","256374","0.0-2.0-0.27","EV","2","pretest","true","3496286","null","","",""
"null","../img/tt/1303tt.jpg","","mooney1","image-keyboard-response","165","259377","0.0-2.0-1.27","EV","2","pretest","true","3496286","null","../img/tt/1303tt.jpg","",""
"447","<p></p>","","recognized","html-keyboard-response","166","259826","0.0-2.0-2.27","EV","2","pretest","true","3496286","89","../img/tt/1303tt.jpg","y",""
"null","../img/gs/1303gs.jpg","","solution","image-keyboard-response","167","261830","0.0-2.0-3.27","EV","2","pretest","true","3496286","null","","",""
"null","../img/tt/1303tt.jpg","","mooney2","image-keyboard-response","168","263833","0.0-2.0-4.27","EV","2","pretest","true","3496286","null","","",""
"214","<p>How strong was your <strong>aha-experience</strong>?</p>","","aha","html-keyboard-response","169","264048","0.0-2.0-5.27","EV","2","pretest","true","3496286","52","../img/tt/1303tt.jpg","","4"
"null","<div style=""font-size:60px;""> </div>","","fixation","html-keyboard-response","170","264250","0.0-2.0-0.28","EV","2","pretest","true","3496286","null","","",""
"null","../img/tt/472tt.jpg","","mooney1","image-keyboard-response","171","267253","0.0-2.0-1.28","EV","2","pretest","true","3496286","null","../img/tt/472tt.jpg","",""
"480","<p></p>","","recognized","html-keyboard-response","172","267735","0.0-2.0-2.28","EV","2","pretest","true","3496286","89","../img/tt/472tt.jpg","y",""
"null","../img/gs/472gs.jpg","","solution","image-keyboard-response","173","269737","0.0-2.0-3.28","EV","2","pretest","true","3496286","null","","",""
"null","../img/tt/472tt.jpg","","mooney2","image-keyboard-response","174","271740","0.0-2.0-4.28","EV","2","pretest","true","3496286","null","","",""
"282","<p>How strong was your <strong>aha-experience</strong>?</p>","","aha","html-keyboard-response","175","272024","0.0-2.0-5.28","EV","2","pretest","true","3496286","50","../img/tt/472tt.jpg","","2"
"null","<div style=""font-size:60px;""> </div>","","fixation","html-keyboard-response","176","272225","0.0-2.0-0.29","EV","2","pretest","true","3496286","null","","",""
"null","../img/tt/517tt.jpg","","mooney1","image-keyboard-response","177","275227","0.0-2.0-1.29","EV","2","pretest","true","3496286","null","../img/tt/517tt.jpg","",""
"678","<p></p>","","recognized","html-keyboard-response","178","275906","0.0-2.0-2.29","EV","2","pretest","true","3496286","78","../img/tt/517tt.jpg","n",""
"null","../img/gs/517gs.jpg","","solution","image-keyboard-response","179","277909","0.0-2.0-3.29","EV","2","pretest","true","3496286","null","","",""
"null","../img/tt/517tt.jpg","","mooney2","image-keyboard-response","180","279912","0.0-2.0-4.29","EV","2","pretest","true","3496286","null","","",""
"322","<p>How strong was your <strong>aha-experience</strong>?</p>","","aha","html-keyboard-response","181","280237","0.0-2.0-5.29","EV","2","pretest","true","3496286","53","../img/tt/517tt.jpg","","5"
"null","<div style=""font-size:60px;""> </div>","","fixation","html-keyboard-response","182","280438","0.0-2.0-0.30","EV","2","pretest","true","3496286","null","","",""
"null","../img/tt/1350tt.jpg","","mooney1","image-keyboard-response","183","283441","0.0-2.0-1.30","EV","2","pretest","true","3496286","null","../img/tt/1350tt.jpg","",""
"376","<p></p>","","recognized","html-keyboard-response","184","283818","0.0-2.0-2.30","EV","2","pretest","true","3496286","78","../img/tt/1350tt.jpg","n",""
"null","../img/gs/1350gs.jpg","","solution","image-keyboard-response","185","285821","0.0-2.0-3.30","EV","2","pretest","true","3496286","null","","",""
"null","../img/tt/1350tt.jpg","","mooney2","image-keyboard-response","186","287825","0.0-2.0-4.30","EV","2","pretest","true","3496286","null","","",""
"272","<p>How strong was your <strong>aha-experience</strong>?</p>","","aha","html-keyboard-response","187","288099","0.0-2.0-5.30","EV","2","pretest","true","3496286","52","../img/tt/1350tt.jpg","","4"
"null","<div style=""font-size:60px;""> </div>","","fixation","html-keyboard-response","188","288300","0.0-2.0-0.31","EV","2","pretest","true","3496286","null","","",""
"null","../img/tt/512tt.jpg","","mooney1","image-keyboard-response","189","291303","0.0-2.0-1.31","EV","2","pretest","true","3496286","null","../img/tt/512tt.jpg","",""
"359","<p></p>","","recognized","html-keyboard-response","190","291663","0.0-2.0-2.31","EV","2","pretest","true","3496286","78","../img/tt/512tt.jpg","n",""
"null","../img/gs/512gs.jpg","","solution","image-keyboard-response","191","293667","0.0-2.0-3.31","EV","2","pretest","true","3496286","null","","",""
"null","../img/tt/512tt.jpg","","mooney2","image-keyboard-response","192","295669","0.0-2.0-4.31","EV","2","pretest","true","3496286","null","","",""
"329","<p>How strong was your <strong>aha-experience</strong>?</p>","","aha","html-keyboard-response","193","296001","0.0-2.0-5.31","EV","2","pretest","true","3496286","52","../img/tt/512tt.jpg","","4"
"null","<div style=""font-size:60px;""> </div>","","fixation","html-keyboard-response","194","296203","0.0-2.0-0.32","EV","2","pretest","true","3496286","null","","",""
"null","../img/tt/182tt.jpg","","mooney1","image-keyboard-response","195","299207","0.0-2.0-1.32","EV","2","pretest","true","3496286","null","../img/tt/182tt.jpg","",""
"323","<p></p>","","recognized","html-keyboard-response","196","299532","0.0-2.0-2.32","EV","2","pretest","true","3496286","89","../img/tt/182tt.jpg","y",""
"null","../img/gs/182gs.jpg","","solution","image-keyboard-response","197","301535","0.0-2.0-3.32","EV","2","pretest","true","3496286","null","","",""
"null","../img/tt/182tt.jpg","","mooney2","image-keyboard-response","198","303539","0.0-2.0-4.32","EV","2","pretest","true","3496286","null","","",""
"317","<p>How strong was your <strong>aha-experience</strong>?</p>","","aha","html-keyboard-response","199","303858","0.0-2.0-5.32","EV","2","pretest","true","3496286","50","../img/tt/182tt.jpg","","2"
"null","<div style=""font-size:60px;""> </div>","","fixation","html-keyboard-response","200","304061","0.0-2.0-0.33","EV","2","pretest","true","3496286","null","","",""
"null","../img/tt/586tt.jpg","","mooney1","image-keyboard-response","201","307063","0.0-2.0-1.33","EV","2","pretest","true","3496286","null","../img/tt/586tt.jpg","",""
"318","<p></p>","","recognized","html-keyboard-response","202","307382","0.0-2.0-2.33","EV","2","pretest","true","3496286","78","../img/tt/586tt.jpg","n",""
"null","../img/gs/586gs.jpg","","solution","image-keyboard-response","203","309385","0.0-2.0-3.33","EV","2","pretest","true","3496286","null","","",""
"null","../img/tt/586tt.jpg","","mooney2","image-keyboard-response","204","311388","0.0-2.0-4.33","EV","2","pretest","true","3496286","null","","",""
"228","<p>How strong was your <strong>aha-experience</strong>?</p>","","aha","html-keyboard-response","205","311618","0.0-2.0-5.33","EV","2","pretest","true","3496286","50","../img/tt/586tt.jpg","","2"
"null","<div style=""font-size:60px;""> </div>","","fixation","html-keyboard-response","206","311820","0.0-2.0-0.34","EV","2","pretest","true","3496286","null","","",""
"null","../img/tt/1363tt.jpg","","mooney1","image-keyboard-response","207","314822","0.0-2.0-1.34","EV","2","pretest","true","3496286","null","../img/tt/1363tt.jpg","",""
"300","<p></p>","","recognized","html-keyboard-response","208","315124","0.0-2.0-2.34","EV","2","pretest","true","3496286","78","../img/tt/1363tt.jpg","n",""
"null","../img/gs/1363gs.jpg","","solution","image-keyboard-response","209","317127","0.0-2.0-3.34","EV","2","pretest","true","3496286","null","","",""
"null","../img/tt/1363tt.jpg","","mooney2","image-keyboard-response","210","319130","0.0-2.0-4.34","EV","2","pretest","true","3496286","null","","",""
"654","<p>How strong was your <strong>aha-experience</strong>?</p>","","aha","html-keyboard-response","211","319786","0.0-2.0-5.34","EV","2","pretest","true","3496286","51","../img/tt/1363tt.jpg","","3"
"null","<div style=""font-size:60px;""> </div>","","fixation","html-keyboard-response","212","319987","0.0-2.0-0.35","EV","2","pretest","true","3496286","null","","",""
"null","../img/tt/357tt.jpg","","mooney1","image-keyboard-response","213","322989","0.0-2.0-1.35","EV","2","pretest","true","3496286","null","../img/tt/357tt.jpg","",""
"1128","<p></p>","","recognized","html-keyboard-response","214","324118","0.0-2.0-2.35","EV","2","pretest","true","3496286","78","../img/tt/357tt.jpg","n",""
"null","../img/gs/357gs.jpg","","solution","image-keyboard-response","215","326121","0.0-2.0-3.35","EV","2","pretest","true","3496286","null","","",""
"null","../img/tt/357tt.jpg","","mooney2","image-keyboard-response","216","328124","0.0-2.0-4.35","EV","2","pretest","true","3496286","null","","",""
"262","<p>How strong was your <strong>aha-experience</strong>?</p>","","aha","html-keyboard-response","217","328387","0.0-2.0-5.35","EV","2","pretest","true","3496286","51","../img/tt/357tt.jpg","","3"
"null","<div style=""font-size:60px;""> </div>","","fixation","html-keyboard-response","218","328590","0.0-2.0-0.36","EV","2","pretest","true","3496286","null","","",""
"null","../img/tt/236tt.jpg","","mooney1","image-keyboard-response","219","331592","0.0-2.0-1.36","EV","2","pretest","true","3496286","null","../img/tt/236tt.jpg","",""
"306","<p></p>","","recognized","html-keyboard-response","220","331900","0.0-2.0-2.36","EV","2","pretest","true","3496286","89","../img/tt/236tt.jpg","y",""
"null","../img/gs/236gs.jpg","","solution","image-keyboard-response","221","333903","0.0-2.0-3.36","EV","2","pretest","true","3496286","null","","",""
"null","../img/tt/236tt.jpg","","mooney2","image-keyboard-response","222","335905","0.0-2.0-4.36","EV","2","pretest","true","3496286","null","","",""
"221","<p>How strong was your <strong>aha-experience</strong>?</p>","","aha","html-keyboard-response","223","336129","0.0-2.0-5.36","EV","2","pretest","true","3496286","49","../img/tt/236tt.jpg","","1"
"null","<div style=""font-size:60px;""> </div>","","fixation","html-keyboard-response","224","336332","0.0-2.0-0.37","EV","2","pretest","true","3496286","null","","",""
"null","../img/tt/447tt.jpg","","mooney1","image-keyboard-response","225","339334","0.0-2.0-1.37","EV","2","pretest","true","3496286","null","../img/tt/447tt.jpg","",""
"308","<p></p>","","recognized","html-keyboard-response","226","339643","0.0-2.0-2.37","EV","2","pretest","true","3496286","89","../img/tt/447tt.jpg","y",""
"null","../img/gs/447gs.jpg","","solution","image-keyboard-response","227","341647","0.0-2.0-3.37","EV","2","pretest","true","3496286","null","","",""
"null","../img/tt/447tt.jpg","","mooney2","image-keyboard-response","228","343650","0.0-2.0-4.37","EV","2","pretest","true","3496286","null","","",""
"234","<p>How strong was your <strong>aha-experience</strong>?</p>","","aha","html-keyboard-response","229","343885","0.0-2.0-5.37","EV","2","pretest","true","3496286","53","../img/tt/447tt.jpg","","5"
"null","<div style=""font-size:60px;""> </div>","","fixation","html-keyboard-response","230","344086","0.0-2.0-0.38","EV","2","pretest","true","3496286","null","","",""
"null","../img/tt/244tt.jpg","","mooney1","image-keyboard-response","231","347090","0.0-2.0-1.38","EV","2","pretest","true","3496286","null","../img/tt/244tt.jpg","",""
"304","<p></p>","","recognized","html-keyboard-response","232","347395","0.0-2.0-2.38","EV","2","pretest","true","3496286","89","../img/tt/244tt.jpg","y",""
"null","../img/gs/244gs.jpg","","solution","image-keyboard-response","233","349398","0.0-2.0-3.38","EV","2","pretest","true","3496286","null","","",""
"null","../img/tt/244tt.jpg","","mooney2","image-keyboard-response","234","351401","0.0-2.0-4.38","EV","2","pretest","true","3496286","null","","",""
"1312","<p>How strong was your <strong>aha-experience</strong>?</p>","","aha","html-keyboard-response","235","352714","0.0-2.0-5.38","EV","2","pretest","true","3496286","51","../img/tt/244tt.jpg","","3"
"null","<div style=""font-size:60px;""> </div>","","fixation","html-keyboard-response","236","352916","0.0-2.0-0.39","EV","2","pretest","true","3496286","null","","",""
"null","../img/tt/160tt.jpg","","mooney1","image-keyboard-response","237","355921","0.0-2.0-1.39","EV","2","pretest","true","3496286","null","../img/tt/160tt.jpg","",""
"376","<p></p>","","recognized","html-keyboard-response","238","356298","0.0-2.0-2.39","EV","2","pretest","true","3496286","78","../img/tt/160tt.jpg","n",""
"null","../img/gs/160gs.jpg","","solution","image-keyboard-response","239","358300","0.0-2.0-3.39","EV","2","pretest","true","3496286","null","","",""
"null","../img/tt/160tt.jpg","","mooney2","image-keyboard-response","240","360304","0.0-2.0-4.39","EV","2","pretest","true","3496286","null","","",""
"448","<p>How strong was your <strong>aha-experience</strong>?</p>","","aha","html-keyboard-response","241","360754","0.0-2.0-5.39","EV","2","pretest","true","3496286","50","../img/tt/160tt.jpg","","2"
"null","<div style=""font-size:60px;""> </div>","","fixation","html-keyboard-response","242","360955","0.0-2.0-0.40","EV","2","pretest","true","3496286","null","","",""
"null","../img/tt/540tt.jpg","","mooney1","image-keyboard-response","243","363958","0.0-2.0-1.40","EV","2","pretest","true","3496286","null","../img/tt/540tt.jpg","",""
"272","<p></p>","","recognized","html-keyboard-response","244","364231","0.0-2.0-2.40","EV","2","pretest","true","3496286","78","../img/tt/540tt.jpg","n",""
"null","../img/gs/540gs.jpg","","solution","image-keyboard-response","245","366234","0.0-2.0-3.40","EV","2","pretest","true","3496286","null","","",""
"null","../img/tt/540tt.jpg","","mooney2","image-keyboard-response","246","368237","0.0-2.0-4.40","EV","2","pretest","true","3496286","null","","",""
"272","<p>How strong was your <strong>aha-experience</strong>?</p>","","aha","html-keyboard-response","247","368511","0.0-2.0-5.40","EV","2","pretest","true","3496286","49","../img/tt/540tt.jpg","","1"
"null","<div style=""font-size:60px;""> </div>","","fixation","html-keyboard-response","248","368713","0.0-2.0-0.41","EV","2","pretest","true","3496286","null","","",""
"null","../img/tt/567tt.jpg","","mooney1","image-keyboard-response","249","371716","0.0-2.0-1.41","EV","2","pretest","true","3496286","null","../img/tt/567tt.jpg","",""
"489","<p></p>","","recognized","html-keyboard-response","250","372207","0.0-2.0-2.41","EV","2","pretest","true","3496286","78","../img/tt/567tt.jpg","n",""
"null","../img/gs/567gs.jpg","","solution","image-keyboard-response","251","374210","0.0-2.0-3.41","EV","2","pretest","true","3496286","null","","",""
"null","../img/tt/567tt.jpg","","mooney2","image-keyboard-response","252","376213","0.0-2.0-4.41","EV","2","pretest","true","3496286","null","","",""
"897","<p>How strong was your <strong>aha-experience</strong>?</p>","","aha","html-keyboard-response","253","377112","0.0-2.0-5.41","EV","2","pretest","true","3496286","53","../img/tt/567tt.jpg","","5"
"null","<div style=""font-size:60px;""> </div>","","fixation","html-keyboard-response","254","377313","0.0-2.0-0.42","EV","2","pretest","true","3496286","null","","",""
"null","../img/tt/253tt.jpg","","mooney1","image-keyboard-response","255","380317","0.0-2.0-1.42","EV","2","pretest","true","3496286","null","../img/tt/253tt.jpg","",""
"257","<p></p>","","recognized","html-keyboard-response","256","380574","0.0-2.0-2.42","EV","2","pretest","true","3496286","89","../img/tt/253tt.jpg","y",""
"null","../img/gs/253gs.jpg","","solution","image-keyboard-response","257","382577","0.0-2.0-3.42","EV","2","pretest","true","3496286","null","","",""
"null","../img/tt/253tt.jpg","","mooney2","image-keyboard-response","258","384579","0.0-2.0-4.42","EV","2","pretest","true","3496286","null","","",""
"262","<p>How strong was your <strong>aha-experience</strong>?</p>","","aha","html-keyboard-response","259","384844","0.0-2.0-5.42","EV","2","pretest","true","3496286","51","../img/tt/253tt.jpg","","3"
"null","<div style=""font-size:60px;""> </div>","","fixation","html-keyboard-response","260","385046","0.0-2.0-0.43","EV","2","pretest","true","3496286","null","","",""
"null","../img/tt/279tt.jpg","","mooney1","image-keyboard-response","261","388049","0.0-2.0-1.43","EV","2","pretest","true","3496286","null","../img/tt/279tt.jpg","",""
"313","<p></p>","","recognized","html-keyboard-response","262","388364","0.0-2.0-2.43","EV","2","pretest","true","3496286","78","../img/tt/279tt.jpg","n",""
"null","../img/gs/279gs.jpg","","solution","image-keyboard-response","263","390366","0.0-2.0-3.43","EV","2","pretest","true","3496286","null","","",""
"null","../img/tt/279tt.jpg","","mooney2","image-keyboard-response","264","392368","0.0-2.0-4.43","EV","2","pretest","true","3496286","null","","",""
"311","<p>How strong was your <strong>aha-experience</strong>?</p>","","aha","html-keyboard-response","265","392681","0.0-2.0-5.43","EV","2","pretest","true","3496286","54","../img/tt/279tt.jpg","","6"
"null","<div style=""font-size:60px;""> </div>","","fixation","html-keyboard-response","266","392883","0.0-2.0-0.44","EV","2","pretest","true","3496286","null","","",""
"null","../img/tt/1374tt.jpg","","mooney1","image-keyboard-response","267","395886","0.0-2.0-1.44","EV","2","pretest","true","3496286","null","../img/tt/1374tt.jpg","",""
"322","<p></p>","","recognized","html-keyboard-response","268","396210","0.0-2.0-2.44","EV","2","pretest","true","3496286","89","../img/tt/1374tt.jpg","y",""
"null","../img/gs/1374gs.jpg","","solution","image-keyboard-response","269","398212","0.0-2.0-3.44","EV","2","pretest","true","3496286","null","","",""
"null","../img/tt/1374tt.jpg","","mooney2","image-keyboard-response","270","400214","0.0-2.0-4.44","EV","2","pretest","true","3496286","null","","",""
"429","<p>How strong was your <strong>aha-experience</strong>?</p>","","aha","html-keyboard-response","271","400644","0.0-2.0-5.44","EV","2","pretest","true","3496286","51","../img/tt/1374tt.jpg","","3"
"null","<div style=""font-size:60px;""> </div>","","fixation","html-keyboard-response","272","400846","0.0-2.0-0.45","EV","2","pretest","true","3496286","null","","",""
"null","../img/tt/205tt.jpg","","mooney1","image-keyboard-response","273","403849","0.0-2.0-1.45","EV","2","pretest","true","3496286","null","../img/tt/205tt.jpg","",""
"420","<p></p>","","recognized","html-keyboard-response","274","404271","0.0-2.0-2.45","EV","2","pretest","true","3496286","89","../img/tt/205tt.jpg","y",""
"null","../img/gs/205gs.jpg","","solution","image-keyboard-response","275","406273","0.0-2.0-3.45","EV","2","pretest","true","3496286","null","","",""
"null","../img/tt/205tt.jpg","","mooney2","image-keyboard-response","276","408275","0.0-2.0-4.45","EV","2","pretest","true","3496286","null","","",""
"228","<p>How strong was your <strong>aha-experience</strong>?</p>","","aha","html-keyboard-response","277","408505","0.0-2.0-5.45","EV","2","pretest","true","3496286","54","../img/tt/205tt.jpg","","6"
"null","<div style=""font-size:60px;""> </div>","","fixation","html-keyboard-response","278","408708","0.0-2.0-0.46","EV","2","pretest","true","3496286","null","","",""
"null","../img/tt/1310tt.jpg","","mooney1","image-keyboard-response","279","411712","0.0-2.0-1.46","EV","2","pretest","true","3496286","null","../img/tt/1310tt.jpg","",""
"318","<p></p>","","recognized","html-keyboard-response","280","412031","0.0-2.0-2.46","EV","2","pretest","true","3496286","89","../img/tt/1310tt.jpg","y",""
"null","../img/gs/1310gs.jpg","","solution","image-keyboard-response","281","414035","0.0-2.0-3.46","EV","2","pretest","true","3496286","null","","",""
"null","../img/tt/1310tt.jpg","","mooney2","image-keyboard-response","282","416037","0.0-2.0-4.46","EV","2","pretest","true","3496286","null","","",""
"394","<p>How strong was your <strong>aha-experience</strong>?</p>","","aha","html-keyboard-response","283","416433","0.0-2.0-5.46","EV","2","pretest","true","3496286","53","../img/tt/1310tt.jpg","","5"
"null","<div style=""font-size:60px;""> </div>","","fixation","html-keyboard-response","284","416635","0.0-2.0-0.47","EV","2","pretest","true","3496286","null","","",""
"null","../img/tt/177tt.jpg","","mooney1","image-keyboard-response","285","419637","0.0-2.0-1.47","EV","2","pretest","true","3496286","null","../img/tt/177tt.jpg","",""
"378","<p></p>","","recognized","html-keyboard-response","286","420016","0.0-2.0-2.47","EV","2","pretest","true","3496286","89","../img/tt/177tt.jpg","y",""
"null","../img/gs/177gs.jpg","","solution","image-keyboard-response","287","422018","0.0-2.0-3.47","EV","2","pretest","true","3496286","null","","",""
"null","../img/tt/177tt.jpg","","mooney2","image-keyboard-response","288","424021","0.0-2.0-4.47","EV","2","pretest","true","3496286","null","","",""
"560","<p>How strong was your <strong>aha-experience</strong>?</p>","","aha","html-keyboard-response","289","424583","0.0-2.0-5.47","EV","2","pretest","true","3496286","51","../img/tt/177tt.jpg","","3"
"null","<div style=""font-size:60px;""> </div>","","fixation","html-keyboard-response","290","424785","0.0-2.0-0.48","EV","2","pretest","true","3496286","null","","",""
"null","../img/tt/1329tt.jpg","","mooney1","image-keyboard-response","291","427788","0.0-2.0-1.48","EV","2","pretest","true","3496286","null","../img/tt/1329tt.jpg","",""
"340","<p></p>","","recognized","html-keyboard-response","292","428129","0.0-2.0-2.48","EV","2","pretest","true","3496286","89","../img/tt/1329tt.jpg","y",""
"null","../img/gs/1329gs.jpg","","solution","image-keyboard-response","293","430132","0.0-2.0-3.48","EV","2","pretest","true","3496286","null","","",""
"null","../img/tt/1329tt.jpg","","mooney2","image-keyboard-response","294","432135","0.0-2.0-4.48","EV","2","pretest","true","3496286","null","","",""
"309","<p>How strong was your <strong>aha-experience</strong>?</p>","","aha","html-keyboard-response","295","432447","0.0-2.0-5.48","EV","2","pretest","true","3496286","50","../img/tt/1329tt.jpg","","2"
"null","<div style=""font-size:60px;""> </div>","","fixation","html-keyboard-response","296","432649","0.0-2.0-0.49","EV","2","pretest","true","3496286","null","","",""
"null","../img/tt/317tt.jpg","","mooney1","image-keyboard-response","297","435653","0.0-2.0-1.49","EV","2","pretest","true","3496286","null","../img/tt/317tt.jpg","",""
"284","<p></p>","","recognized","html-keyboard-response","298","435938","0.0-2.0-2.49","EV","2","pretest","true","3496286","78","../img/tt/317tt.jpg","n",""
"null","../img/gs/317gs.jpg","","solution","image-keyboard-response","299","437941","0.0-2.0-3.49","EV","2","pretest","true","3496286","null","","",""
"null","../img/tt/317tt.jpg","","mooney2","image-keyboard-response","300","439943","0.0-2.0-4.49","EV","2","pretest","true","3496286","null","","",""
"349","<p>How strong was your <strong>aha-experience</strong>?</p>","","aha","html-keyboard-response","301","440293","0.0-2.0-5.49","EV","2","pretest","true","3496286","54","../img/tt/317tt.jpg","","6"
"null","<div style=""font-size:60px;""> </div>","","fixation","html-keyboard-response","302","440496","0.0-2.0-0.50","EV","2","pretest","true","3496286","null","","",""
"null","../img/tt/487tt.jpg","","mooney1","image-keyboard-response","303","443500","0.0-2.0-1.50","EV","2","pretest","true","3496286","null","../img/tt/487tt.jpg","",""
"306","<p></p>","","recognized","html-keyboard-response","304","443807","0.0-2.0-2.50","EV","2","pretest","true","3496286","78","../img/tt/487tt.jpg","n",""
"null","../img/gs/487gs.jpg","","solution","image-keyboard-response","305","445809","0.0-2.0-3.50","EV","2","pretest","true","3496286","null","","",""
"null","../img/tt/487tt.jpg","","mooney2","image-keyboard-response","306","447812","0.0-2.0-4.50","EV","2","pretest","true","3496286","null","","",""
"267","<p>How strong was your <strong>aha-experience</strong>?</p>","","aha","html-keyboard-response","307","448081","0.0-2.0-5.50","EV","2","pretest","true","3496286","49","../img/tt/487tt.jpg","","1"
"null","<div style=""font-size:60px;""> </div>","","fixation","html-keyboard-response","308","448282","0.0-2.0-0.51","EV","2","pretest","true","3496286","null","","",""
"null","../img/tt/232tt.jpg","","mooney1","image-keyboard-response","309","451284","0.0-2.0-1.51","EV","2","pretest","true","3496286","null","../img/tt/232tt.jpg","",""
"375","<p></p>","","recognized","html-keyboard-response","310","451660","0.0-2.0-2.51","EV","2","pretest","true","3496286","89","../img/tt/232tt.jpg","y",""
"null","../img/gs/232gs.jpg","","solution","image-keyboard-response","311","453662","0.0-2.0-3.51","EV","2","pretest","true","3496286","null","","",""
"null","../img/tt/232tt.jpg","","mooney2","image-keyboard-response","312","455665","0.0-2.0-4.51","EV","2","pretest","true","3496286","null","","",""
"886","<p>How strong was your <strong>aha-experience</strong>?</p>","","aha","html-keyboard-response","313","456553","0.0-2.0-5.51","EV","2","pretest","true","3496286","53","../img/tt/232tt.jpg","","5"
"null","<div style=""font-size:60px;""> </div>","","fixation","html-keyboard-response","314","456755","0.0-2.0-0.52","EV","2","pretest","true","3496286","null","","",""
"null","../img/tt/373tt.jpg","","mooney1","image-keyboard-response","315","459757","0.0-2.0-1.52","EV","2","pretest","true","3496286","null","../img/tt/373tt.jpg","",""
"289","<p></p>","","recognized","html-keyboard-response","316","460048","0.0-2.0-2.52","EV","2","pretest","true","3496286","89","../img/tt/373tt.jpg","y",""
"null","../img/gs/373gs.jpg","","solution","image-keyboard-response","317","462052","0.0-2.0-3.52","EV","2","pretest","true","3496286","null","","",""
"null","../img/tt/373tt.jpg","","mooney2","image-keyboard-response","318","464055","0.0-2.0-4.52","EV","2","pretest","true","3496286","null","","",""
"250","<p>How strong was your <strong>aha-experience</strong>?</p>","","aha","html-keyboard-response","319","464307","0.0-2.0-5.52","EV","2","pretest","true","3496286","53","../img/tt/373tt.jpg","","5"
"null","<div style=""font-size:60px;""> </div>","","fixation","html-keyboard-response","320","464510","0.0-2.0-0.53","EV","2","pretest","true","3496286","null","","",""
"null","../img/tt/212tt.jpg","","mooney1","image-keyboard-response","321","467513","0.0-2.0-1.53","EV","2","pretest","true","3496286","null","../img/tt/212tt.jpg","",""
"278","<p></p>","","recognized","html-keyboard-response","322","467792","0.0-2.0-2.53","EV","2","pretest","true","3496286","78","../img/tt/212tt.jpg","n",""
"null","../img/gs/212gs.jpg","","solution","image-keyboard-response","323","469794","0.0-2.0-3.53","EV","2","pretest","true","3496286","null","","",""
"null","../img/tt/212tt.jpg","","mooney2","image-keyboard-response","324","471797","0.0-2.0-4.53","EV","2","pretest","true","3496286","null","","",""
"739","<p>How strong was your <strong>aha-experience</strong>?</p>","","aha","html-keyboard-response","325","472539","0.0-2.0-5.53","EV","2","pretest","true","3496286","52","../img/tt/212tt.jpg","","4"
"null","<div style=""font-size:60px;""> </div>","","fixation","html-keyboard-response","326","472741","0.0-2.0-0.54","EV","2","pretest","true","3496286","null","","",""
"null","../img/tt/370tt.jpg","","mooney1","image-keyboard-response","327","475744","0.0-2.0-1.54","EV","2","pretest","true","3496286","null","../img/tt/370tt.jpg","",""
"242","<p></p>","","recognized","html-keyboard-response","328","475988","0.0-2.0-2.54","EV","2","pretest","true","3496286","78","../img/tt/370tt.jpg","n",""
"null","../img/gs/370gs.jpg","","solution","image-keyboard-response","329","477991","0.0-2.0-3.54","EV","2","pretest","true","3496286","null","","",""
"null","../img/tt/370tt.jpg","","mooney2","image-keyboard-response","330","479994","0.0-2.0-4.54","EV","2","pretest","true","3496286","null","","",""
"298","<p>How strong was your <strong>aha-experience</strong>?</p>","","aha","html-keyboard-response","331","480294","0.0-2.0-5.54","EV","2","pretest","true","3496286","50","../img/tt/370tt.jpg","","2"
"null","<div style=""font-size:60px;""> </div>","","fixation","html-keyboard-response","332","480497","0.0-2.0-0.55","EV","2","pretest","true","3496286","null","","",""
"null","../img/tt/513tt.jpg","","mooney1","image-keyboard-response","333","483499","0.0-2.0-1.55","EV","2","pretest","true","3496286","null","../img/tt/513tt.jpg","",""
"266","<p></p>","","recognized","html-keyboard-response","334","483768","0.0-2.0-2.55","EV","2","pretest","true","3496286","78","../img/tt/513tt.jpg","n",""
"null","../img/gs/513gs.jpg","","solution","image-keyboard-response","335","485772","0.0-2.0-3.55","EV","2","pretest","true","3496286","null","","",""
"null","../img/tt/513tt.jpg","","mooney2","image-keyboard-response","336","487774","0.0-2.0-4.55","EV","2","pretest","true","3496286","null","","",""
"261","<p>How strong was your <strong>aha-experience</strong>?</p>","","aha","html-keyboard-response","337","488038","0.0-2.0-5.55","EV","2","pretest","true","3496286","53","../img/tt/513tt.jpg","","5"
"null","<div style=""font-size:60px;""> </div>","","fixation","html-keyboard-response","338","488241","0.0-2.0-0.56","EV","2","pretest","true","3496286","null","","",""
"null","../img/tt/427tt.jpg","","mooney1","image-keyboard-response","339","491244","0.0-2.0-1.56","EV","2","pretest","true","3496286","null","../img/tt/427tt.jpg","",""
"278","<p></p>","","recognized","html-keyboard-response","340","491525","0.0-2.0-2.56","EV","2","pretest","true","3496286","89","../img/tt/427tt.jpg","y",""
"null","../img/gs/427gs.jpg","","solution","image-keyboard-response","341","493527","0.0-2.0-3.56","EV","2","pretest","true","3496286","null","","",""
"null","../img/tt/427tt.jpg","","mooney2","image-keyboard-response","342","495529","0.0-2.0-4.56","EV","2","pretest","true","3496286","null","","",""
"615","<p>How strong was your <strong>aha-experience</strong>?</p>","","aha","html-keyboard-response","343","496145","0.0-2.0-5.56","EV","2","pretest","true","3496286","52","../img/tt/427tt.jpg","","4"
"null","<div style=""font-size:60px;""> </div>","","fixation","html-keyboard-response","344","496347","0.0-2.0-0.57","EV","2","pretest","true","3496286","null","","",""
"null","../img/tt/1307tt.jpg","","mooney1","image-keyboard-response","345","499349","0.0-2.0-1.57","EV","2","pretest","true","3496286","null","../img/tt/1307tt.jpg","",""
"317","<p></p>","","recognized","html-keyboard-response","346","499667","0.0-2.0-2.57","EV","2","pretest","true","3496286","78","../img/tt/1307tt.jpg","n",""
"null","../img/gs/1307gs.jpg","","solution","image-keyboard-response","347","501671","0.0-2.0-3.57","EV","2","pretest","true","3496286","null","","",""
"null","../img/tt/1307tt.jpg","","mooney2","image-keyboard-response","348","503673","0.0-2.0-4.57","EV","2","pretest","true","3496286","null","","",""
"292","<p>How strong was your <strong>aha-experience</strong>?</p>","","aha","html-keyboard-response","349","503967","0.0-2.0-5.57","EV","2","pretest","true","3496286","51","../img/tt/1307tt.jpg","","3"
"null","<div style=""font-size:60px;""> </div>","","fixation","html-keyboard-response","350","504168","0.0-2.0-0.58","EV","2","pretest","true","3496286","null","","",""
"null","../img/tt/195tt.jpg","","mooney1","image-keyboard-response","351","507172","0.0-2.0-1.58","EV","2","pretest","true","3496286","null","../img/tt/195tt.jpg","",""
"351","<p></p>","","recognized","html-keyboard-response","352","507524","0.0-2.0-2.58","EV","2","pretest","true","3496286","78","../img/tt/195tt.jpg","n",""
"null","../img/gs/195gs.jpg","","solution","image-keyboard-response","353","509527","0.0-2.0-3.58","EV","2","pretest","true","3496286","null","","",""
"null","../img/tt/195tt.jpg","","mooney2","image-keyboard-response","354","511529","0.0-2.0-4.58","EV","2","pretest","true","3496286","null","","",""
"401","<p>How strong was your <strong>aha-experience</strong>?</p>","","aha","html-keyboard-response","355","511931","0.0-2.0-5.58","EV","2","pretest","true","3496286","50","../img/tt/195tt.jpg","","2"
"null","<div style=""font-size:60px;""> </div>","","fixation","html-keyboard-response","356","512134","0.0-2.0-0.59","EV","2","pretest","true","3496286","null","","",""
"null","../img/tt/155tt.jpg","","mooney1","image-keyboard-response","357","515136","0.0-2.0-1.59","EV","2","pretest","true","3496286","null","../img/tt/155tt.jpg","",""
"245","<p></p>","","recognized","html-keyboard-response","358","515384","0.0-2.0-2.59","EV","2","pretest","true","3496286","89","../img/tt/155tt.jpg","y",""
"null","../img/gs/155gs.jpg","","solution","image-keyboard-response","359","517387","0.0-2.0-3.59","EV","2","pretest","true","3496286","null","","",""
"null","../img/tt/155tt.jpg","","mooney2","image-keyboard-response","360","519390","0.0-2.0-4.59","EV","2","pretest","true","3496286","null","","",""
"268","<p>How strong was your <strong>aha-experience</strong>?</p>","","aha","html-keyboard-response","361","519660","0.0-2.0-5.59","EV","2","pretest","true","3496286","51","../img/tt/155tt.jpg","","3"
"null","<div style=""font-size:60px;""> </div>","","fixation","html-keyboard-response","362","519864","0.0-2.0-0.60","EV","2","pretest","true","3496286","null","","",""
"null","../img/tt/396tt.jpg","","mooney1","image-keyboard-response","363","522866","0.0-2.0-1.60","EV","2","pretest","true","3496286","null","../img/tt/396tt.jpg","",""
"386","<p></p>","","recognized","html-keyboard-response","364","523253","0.0-2.0-2.60","EV","2","pretest","true","3496286","89","../img/tt/396tt.jpg","y",""
"null","../img/gs/396gs.jpg","","solution","image-keyboard-response","365","525256","0.0-2.0-3.60","EV","2","pretest","true","3496286","null","","",""
"null","../img/tt/396tt.jpg","","mooney2","image-keyboard-response","366","527259","0.0-2.0-4.60","EV","2","pretest","true","3496286","null","","",""
"869","<p>How strong was your <strong>aha-experience</strong>?</p>","","aha","html-keyboard-response","367","528130","0.0-2.0-5.60","EV","2","pretest","true","3496286","54","../img/tt/396tt.jpg","","6"
"null","<div style=""font-size:60px;""> </div>","","fixation","html-keyboard-response","368","528333","0.0-2.0-0.61","EV","2","pretest","true","3496286","null","","",""
"null","../img/tt/194tt.jpg","","mooney1","image-keyboard-response","369","531337","0.0-2.0-1.61","EV","2","pretest","true","3496286","null","../img/tt/194tt.jpg","",""
"315","<p></p>","","recognized","html-keyboard-response","370","531654","0.0-2.0-2.61","EV","2","pretest","true","3496286","89","../img/tt/194tt.jpg","y",""
"null","../img/gs/194gs.jpg","","solution","image-keyboard-response","371","533657","0.0-2.0-3.61","EV","2","pretest","true","3496286","null","","",""
"null","../img/tt/194tt.jpg","","mooney2","image-keyboard-response","372","535658","0.0-2.0-4.61","EV","2","pretest","true","3496286","null","","",""
"270","<p>How strong was your <strong>aha-experience</strong>?</p>","","aha","html-keyboard-response","373","535930","0.0-2.0-5.61","EV","2","pretest","true","3496286","53","../img/tt/194tt.jpg","","5"
"null","<div style=""font-size:60px;""> </div>","","fixation","html-keyboard-response","374","536133","0.0-2.0-0.62","EV","2","pretest","true","3496286","null","","",""
"null","../img/tt/1322tt.jpg","","mooney1","image-keyboard-response","375","539136","0.0-2.0-1.62","EV","2","pretest","true","3496286","null","../img/tt/1322tt.jpg","",""
"915","<p></p>","","recognized","html-keyboard-response","376","540053","0.0-2.0-2.62","EV","2","pretest","true","3496286","89","../img/tt/1322tt.jpg","y",""
"null","../img/gs/1322gs.jpg","","solution","image-keyboard-response","377","542056","0.0-2.0-3.62","EV","2","pretest","true","3496286","null","","",""
"null","../img/tt/1322tt.jpg","","mooney2","image-keyboard-response","378","544058","0.0-2.0-4.62","EV","2","pretest","true","3496286","null","","",""
"282","<p>How strong was your <strong>aha-experience</strong>?</p>","","aha","html-keyboard-response","379","544342","0.0-2.0-5.62","EV","2","pretest","true","3496286","51","../img/tt/1322tt.jpg","","3"
"null","<div style=""font-size:60px;""> </div>","","fixation","html-keyboard-response","380","544544","0.0-2.0-0.63","EV","2","pretest","true","3496286","null","","",""
"null","../img/tt/169tt.jpg","","mooney1","image-keyboard-response","381","547548","0.0-2.0-1.63","EV","2","pretest","true","3496286","null","../img/tt/169tt.jpg","",""
"267","<p></p>","","recognized","html-keyboard-response","382","547817","0.0-2.0-2.63","EV","2","pretest","true","3496286","78","../img/tt/169tt.jpg","n",""
"null","../img/gs/169gs.jpg","","solution","image-keyboard-response","383","549820","0.0-2.0-3.63","EV","2","pretest","true","3496286","null","","",""
"null","../img/tt/169tt.jpg","","mooney2","image-keyboard-response","384","551822","0.0-2.0-4.63","EV","2","pretest","true","3496286","null","","",""
"288","<p>How strong was your <strong>aha-experience</strong>?</p>","","aha","html-keyboard-response","385","552114","0.0-2.0-5.63","EV","2","pretest","true","3496286","51","../img/tt/169tt.jpg","","3"
"null","<div style=""font-size:60px;""> </div>","","fixation","html-keyboard-response","386","552317","0.0-2.0-0.64","EV","2","pretest","true","3496286","null","","",""
"null","../img/tt/1319tt.jpg","","mooney1","image-keyboard-response","387","555320","0.0-2.0-1.64","EV","2","pretest","true","3496286","null","../img/tt/1319tt.jpg","",""
"280","<p></p>","","recognized","html-keyboard-response","388","555602","0.0-2.0-2.64","EV","2","pretest","true","3496286","78","../img/tt/1319tt.jpg","n",""
"null","../img/gs/1319gs.jpg","","solution","image-keyboard-response","389","557605","0.0-2.0-3.64","EV","2","pretest","true","3496286","null","","",""
"null","../img/tt/1319tt.jpg","","mooney2","image-keyboard-response","390","559608","0.0-2.0-4.64","EV","2","pretest","true","3496286","null","","",""
"261","<p>How strong was your <strong>aha-experience</strong>?</p>","","aha","html-keyboard-response","391","559871","0.0-2.0-5.64","EV","2","pretest","true","3496286","52","../img/tt/1319tt.jpg","","4"
"null","<div style=""font-size:60px;""> </div>","","fixation","html-keyboard-response","392","560072","0.0-2.0-0.65","EV","2","pretest","true","3496286","null","","",""
"null","../img/tt/316tt.jpg","","mooney1","image-keyboard-response","393","563076","0.0-2.0-1.65","EV","2","pretest","true","3496286","null","../img/tt/316tt.jpg","",""
"270","<p></p>","","recognized","html-keyboard-response","394","563348","0.0-2.0-2.65","EV","2","pretest","true","3496286","78","../img/tt/316tt.jpg","n",""
"null","../img/gs/316gs.jpg","","solution","image-keyboard-response","395","565351","0.0-2.0-3.65","EV","2","pretest","true","3496286","null","","",""
"null","../img/tt/316tt.jpg","","mooney2","image-keyboard-response","396","567354","0.0-2.0-4.65","EV","2","pretest","true","3496286","null","","",""
"305","<p>How strong was your <strong>aha-experience</strong>?</p>","","aha","html-keyboard-response","397","567661","0.0-2.0-5.65","EV","2","pretest","true","3496286","50","../img/tt/316tt.jpg","","2"
"null","<div style=""font-size:60px;""> </div>","","fixation","html-keyboard-response","398","567863","0.0-2.0-0.66","EV","2","pretest","true","3496286","null","","",""
"null","../img/tt/344tt.jpg","","mooney1","image-keyboard-response","399","570865","0.0-2.0-1.66","EV","2","pretest","true","3496286","null","../img/tt/344tt.jpg","",""
"290","<p></p>","","recognized","html-keyboard-response","400","571157","0.0-2.0-2.66","EV","2","pretest","true","3496286","89","../img/tt/344tt.jpg","y",""
"null","../img/gs/344gs.jpg","","solution","image-keyboard-response","401","573160","0.0-2.0-3.66","EV","2","pretest","true","3496286","null","","",""
"null","../img/tt/344tt.jpg","","mooney2","image-keyboard-response","402","575162","0.0-2.0-4.66","EV","2","pretest","true","3496286","null","","",""
"290","<p>How strong was your <strong>aha-experience</strong>?</p>","","aha","html-keyboard-response","403","575454","0.0-2.0-5.66","EV","2","pretest","true","3496286","53","../img/tt/344tt.jpg","","5"
"null","<div style=""font-size:60px;""> </div>","","fixation","html-keyboard-response","404","575656","0.0-2.0-0.67","EV","2","pretest","true","3496286","null","","",""
"null","../img/tt/1366tt.jpg","","mooney1","image-keyboard-response","405","578659","0.0-2.0-1.67","EV","2","pretest","true","3496286","null","../img/tt/1366tt.jpg","",""
"407","<p></p>","","recognized","html-keyboard-response","406","579067","0.0-2.0-2.67","EV","2","pretest","true","3496286","89","../img/tt/1366tt.jpg","y",""
"null","../img/gs/1366gs.jpg","","solution","image-keyboard-response","407","581072","0.0-2.0-3.67","EV","2","pretest","true","3496286","null","","",""
"null","../img/tt/1366tt.jpg","","mooney2","image-keyboard-response","408","583075","0.0-2.0-4.67","EV","2","pretest","true","3496286","null","","",""
"267","<p>How strong was your <strong>aha-experience</strong>?</p>","","aha","html-keyboard-response","409","583345","0.0-2.0-5.67","EV","2","pretest","true","3496286","52","../img/tt/1366tt.jpg","","4"
"null","<div style=""font-size:60px;""> </div>","","fixation","html-keyboard-response","410","583547","0.0-2.0-0.68","EV","2","pretest","true","3496286","null","","",""
"null","../img/tt/459tt.jpg","","mooney1","image-keyboard-response","411","586550","0.0-2.0-1.68","EV","2","pretest","true","3496286","null","../img/tt/459tt.jpg","",""
"398","<p></p>","","recognized","html-keyboard-response","412","586950","0.0-2.0-2.68","EV","2","pretest","true","3496286","78","../img/tt/459tt.jpg","n",""
"null","../img/gs/459gs.jpg","","solution","image-keyboard-response","413","588953","0.0-2.0-3.68","EV","2","pretest","true","3496286","null","","",""
"null","../img/tt/459tt.jpg","","mooney2","image-keyboard-response","414","590957","0.0-2.0-4.68","EV","2","pretest","true","3496286","null","","",""
"264","<p>How strong was your <strong>aha-experience</strong>?</p>","","aha","html-keyboard-response","415","591223","0.0-2.0-5.68","EV","2","pretest","true","3496286","53","../img/tt/459tt.jpg","","5"
"null","<div style=""font-size:60px;""> </div>","","fixation","html-keyboard-response","416","591425","0.0-2.0-0.69","EV","2","pretest","true","3496286","null","","",""
"null","../img/tt/588tt.jpg","","mooney1","image-keyboard-response","417","594427","0.0-2.0-1.69","EV","2","pretest","true","3496286","null","../img/tt/588tt.jpg","",""
"280","<p></p>","","recognized","html-keyboard-response","418","594708","0.0-2.0-2.69","EV","2","pretest","true","3496286","78","../img/tt/588tt.jpg","n",""
"null","../img/gs/588gs.jpg","","solution","image-keyboard-response","419","596711","0.0-2.0-3.69","EV","2","pretest","true","3496286","null","","",""
"null","../img/tt/588tt.jpg","","mooney2","image-keyboard-response","420","598714","0.0-2.0-4.69","EV","2","pretest","true","3496286","null","","",""
"461","<p>How strong was your <strong>aha-experience</strong>?</p>","","aha","html-keyboard-response","421","599176","0.0-2.0-5.69","EV","2","pretest","true","3496286","50","../img/tt/588tt.jpg","","2"
"null","<div style=""font-size:60px;""> </div>","","fixation","html-keyboard-response","422","599378","0.0-2.0-0.70","EV","2","pretest","true","3496286","null","","",""
"null","../img/tt/466tt.jpg","","mooney1","image-keyboard-response","423","602381","0.0-2.0-1.70","EV","2","pretest","true","3496286","null","../img/tt/466tt.jpg","",""
"335","<p></p>","","recognized","html-keyboard-response","424","602717","0.0-2.0-2.70","EV","2","pretest","true","3496286","89","../img/tt/466tt.jpg","y",""
"null","../img/gs/466gs.jpg","","solution","image-keyboard-response","425","604720","0.0-2.0-3.70","EV","2","pretest","true","3496286","null","","",""
"null","../img/tt/466tt.jpg","","mooney2","image-keyboard-response","426","606722","0.0-2.0-4.70","EV","2","pretest","true","3496286","null","","",""
"218","<p>How strong was your <strong>aha-experience</strong>?</p>","","aha","html-keyboard-response","427","606942","0.0-2.0-5.70","EV","2","pretest","true","3496286","53","../img/tt/466tt.jpg","","5"
"null","<div style=""font-size:60px;""> </div>","","fixation","html-keyboard-response","428","607143","0.0-2.0-0.71","EV","2","pretest","true","3496286","null","","",""
"null","../img/tt/255tt.jpg","","mooney1","image-keyboard-response","429","610147","0.0-2.0-1.71","EV","2","pretest","true","3496286","null","../img/tt/255tt.jpg","",""
"319","<p></p>","","recognized","html-keyboard-response","430","610468","0.0-2.0-2.71","EV","2","pretest","true","3496286","89","../img/tt/255tt.jpg","y",""
"null","../img/gs/255gs.jpg","","solution","image-keyboard-response","431","612471","0.0-2.0-3.71","EV","2","pretest","true","3496286","null","","",""
"null","../img/tt/255tt.jpg","","mooney2","image-keyboard-response","432","614474","0.0-2.0-4.71","EV","2","pretest","true","3496286","null","","",""
"238","<p>How strong was your <strong>aha-experience</strong>?</p>","","aha","html-keyboard-response","433","614714","0.0-2.0-5.71","EV","2","pretest","true","3496286","49","../img/tt/255tt.jpg","","1"
"null","<div style=""font-size:60px;""> </div>","","fixation","html-keyboard-response","434","614916","0.0-2.0-0.72","EV","2","pretest","true","3496286","null","","",""
"null","../img/tt/1334tt.jpg","","mooney1","image-keyboard-response","435","617919","0.0-2.0-1.72","EV","2","pretest","true","3496286","null","../img/tt/1334tt.jpg","",""
"418","<p></p>","","recognized","html-keyboard-response","436","618338","0.0-2.0-2.72","EV","2","pretest","true","3496286","89","../img/tt/1334tt.jpg","y",""
"null","../img/gs/1334gs.jpg","","solution","image-keyboard-response","437","620341","0.0-2.0-3.72","EV","2","pretest","true","3496286","null","","",""
"null","../img/tt/1334tt.jpg","","mooney2","image-keyboard-response","438","622344","0.0-2.0-4.72","EV","2","pretest","true","3496286","null","","",""
"252","<p>How strong was your <strong>aha-experience</strong>?</p>","","aha","html-keyboard-response","439","622599","0.0-2.0-5.72","EV","2","pretest","true","3496286","52","../img/tt/1334tt.jpg","","4"
"null","<div style=""font-size:60px;""> </div>","","fixation","html-keyboard-response","440","622802","0.0-2.0-0.73","EV","2","pretest","true","3496286","null","","",""
"null","../img/tt/438tt.jpg","","mooney1","image-keyboard-response","441","625804","0.0-2.0-1.73","EV","2","pretest","true","3496286","null","../img/tt/438tt.jpg","",""
"661","<p></p>","","recognized","html-keyboard-response","442","626466","0.0-2.0-2.73","EV","2","pretest","true","3496286","89","../img/tt/438tt.jpg","y",""
"null","../img/gs/438gs.jpg","","solution","image-keyboard-response","443","628469","0.0-2.0-3.73","EV","2","pretest","true","3496286","null","","",""
"null","../img/tt/438tt.jpg","","mooney2","image-keyboard-response","444","630471","0.0-2.0-4.73","EV","2","pretest","true","3496286","null","","",""
"1222","<p>How strong was your <strong>aha-experience</strong>?</p>","","aha","html-keyboard-response","445","631695","0.0-2.0-5.73","EV","2","pretest","true","3496286","53","../img/tt/438tt.jpg","","5"
"null","<div style=""font-size:60px;""> </div>","","fixation","html-keyboard-response","446","631899","0.0-2.0-0.74","EV","2","pretest","true","3496286","null","","",""
"null","../img/tt/523tt.jpg","","mooney1","image-keyboard-response","447","634903","0.0-2.0-1.74","EV","2","pretest","true","3496286","null","../img/tt/523tt.jpg","",""
"1982","<p></p>","","recognized","html-keyboard-response","448","636887","0.0-2.0-2.74","EV","2","pretest","true","3496286","78","../img/tt/523tt.jpg","n",""
"null","../img/gs/523gs.jpg","","solution","image-keyboard-response","449","638890","0.0-2.0-3.74","EV","2","pretest","true","3496286","null","","",""
"null","../img/tt/523tt.jpg","","mooney2","image-keyboard-response","450","640894","0.0-2.0-4.74","EV","2","pretest","true","3496286","null","","",""
"322","<p>How strong was your <strong>aha-experience</strong>?</p>","","aha","html-keyboard-response","451","641217","0.0-2.0-5.74","EV","2","pretest","true","3496286","51","../img/tt/523tt.jpg","","3"
"null","<div style=""font-size:60px;""> </div>","","fixation","html-keyboard-response","452","641420","0.0-2.0-0.75","EV","2","pretest","true","3496286","null","","",""
"null","../img/tt/340tt.jpg","","mooney1","image-keyboard-response","453","644423","0.0-2.0-1.75","EV","2","pretest","true","3496286","null","../img/tt/340tt.jpg","",""
"547","<p></p>","","recognized","html-keyboard-response","454","644972","0.0-2.0-2.75","EV","2","pretest","true","3496286","78","../img/tt/340tt.jpg","n",""
"null","../img/gs/340gs.jpg","","solution","image-keyboard-response","455","646975","0.0-2.0-3.75","EV","2","pretest","true","3496286","null","","",""
"null","../img/tt/340tt.jpg","","mooney2","image-keyboard-response","456","648978","0.0-2.0-4.75","EV","2","pretest","true","3496286","null","","",""
"273","<p>How strong was your <strong>aha-experience</strong>?</p>","","aha","html-keyboard-response","457","649254","0.0-2.0-5.75","EV","2","pretest","true","3496286","49","../img/tt/340tt.jpg","","1"
"null","<div style=""font-size:60px;""> </div>","","fixation","html-keyboard-response","458","649456","0.0-2.0-0.76","EV","2","pretest","true","3496286","null","","",""
"null","../img/tt/458tt.jpg","","mooney1","image-keyboard-response","459","652459","0.0-2.0-1.76","EV","2","pretest","true","3496286","null","../img/tt/458tt.jpg","",""
"330","<p></p>","","recognized","html-keyboard-response","460","652791","0.0-2.0-2.76","EV","2","pretest","true","3496286","78","../img/tt/458tt.jpg","n",""
"null","../img/gs/458gs.jpg","","solution","image-keyboard-response","461","654794","0.0-2.0-3.76","EV","2","pretest","true","3496286","null","","",""
"null","../img/tt/458tt.jpg","","mooney2","image-keyboard-response","462","656795","0.0-2.0-4.76","EV","2","pretest","true","3496286","null","","",""
"296","<p>How strong was your <strong>aha-experience</strong>?</p>","","aha","html-keyboard-response","463","657094","0.0-2.0-5.76","EV","2","pretest","true","3496286","53","../img/tt/458tt.jpg","","5"
"null","<div style=""font-size:60px;""> </div>","","fixation","html-keyboard-response","464","657296","0.0-2.0-0.77","EV","2","pretest","true","3496286","null","","",""
"null","../img/tt/486tt.jpg","","mooney1","image-keyboard-response","465","660298","0.0-2.0-1.77","EV","2","pretest","true","3496286","null","../img/tt/486tt.jpg","",""
"331","<p></p>","","recognized","html-keyboard-response","466","660630","0.0-2.0-2.77","EV","2","pretest","true","3496286","89","../img/tt/486tt.jpg","y",""
"null","../img/gs/486gs.jpg","","solution","image-keyboard-response","467","662634","0.0-2.0-3.77","EV","2","pretest","true","3496286","null","","",""
"null","../img/tt/486tt.jpg","","mooney2","image-keyboard-response","468","664636","0.0-2.0-4.77","EV","2","pretest","true","3496286","null","","",""
"389","<p>How strong was your <strong>aha-experience</strong>?</p>","","aha","html-keyboard-response","469","665028","0.0-2.0-5.77","EV","2","pretest","true","3496286","53","../img/tt/486tt.jpg","","5"
"null","<div style=""font-size:60px;""> </div>","","fixation","html-keyboard-response","470","665230","0.0-2.0-0.78","EV","2","pretest","true","3496286","null","","",""
"null","../img/tt/230tt.jpg","","mooney1","image-keyboard-response","471","668233","0.0-2.0-1.78","EV","2","pretest","true","3496286","null","../img/tt/230tt.jpg","",""
"536","<p></p>","","recognized","html-keyboard-response","472","668770","0.0-2.0-2.78","EV","2","pretest","true","3496286","89","../img/tt/230tt.jpg","y",""
"null","../img/gs/230gs.jpg","","solution","image-keyboard-response","473","670773","0.0-2.0-3.78","EV","2","pretest","true","3496286","null","","",""
"null","../img/tt/230tt.jpg","","mooney2","image-keyboard-response","474","672775","0.0-2.0-4.78","EV","2","pretest","true","3496286","null","","",""
"248","<p>How strong was your <strong>aha-experience</strong>?</p>","","aha","html-keyboard-response","475","673025","0.0-2.0-5.78","EV","2","pretest","true","3496286","51","../img/tt/230tt.jpg","","3"
"null","<div style=""font-size:60px;""> </div>","","fixation","html-keyboard-response","476","673227","0.0-2.0-0.79","EV","2","pretest","true","3496286","null","","",""
"null","../img/tt/1325tt.jpg","","mooney1","image-keyboard-response","477","676229","0.0-2.0-1.79","EV","2","pretest","true","3496286","null","../img/tt/1325tt.jpg","",""
"307","<p></p>","","recognized","html-keyboard-response","478","676537","0.0-2.0-2.79","EV","2","pretest","true","3496286","89","../img/tt/1325tt.jpg","y",""
"null","../img/gs/1325gs.jpg","","solution","image-keyboard-response","479","678540","0.0-2.0-3.79","EV","2","pretest","true","3496286","null","","",""
"null","../img/tt/1325tt.jpg","","mooney2","image-keyboard-response","480","680542","0.0-2.0-4.79","EV","2","pretest","true","3496286","null","","",""
"218","<p>How strong was your <strong>aha-experience</strong>?</p>","","aha","html-keyboard-response","481","680763","0.0-2.0-5.79","EV","2","pretest","true","3496286","52","../img/tt/1325tt.jpg","","4"
"null","<div style=""font-size:60px;""> </div>","","fixation","html-keyboard-response","482","680965","0.0-2.0-0.80","EV","2","pretest","true","3496286","null","","",""
"null","../img/tt/1308tt.jpg","","mooney1","image-keyboard-response","483","683969","0.0-2.0-1.80","EV","2","pretest","true","3496286","null","../img/tt/1308tt.jpg","",""
"445","<p></p>","","recognized","html-keyboard-response","484","684415","0.0-2.0-2.80","EV","2","pretest","true","3496286","89","../img/tt/1308tt.jpg","y",""
"null","../img/gs/1308gs.jpg","","solution","image-keyboard-response","485","686417","0.0-2.0-3.80","EV","2","pretest","true","3496286","null","","",""
"null","../img/tt/1308tt.jpg","","mooney2","image-keyboard-response","486","688421","0.0-2.0-4.80","EV","2","pretest","true","3496286","null","","",""
"266","<p>How strong was your <strong>aha-experience</strong>?</p>","","aha","html-keyboard-response","487","688689","0.0-2.0-5.80","EV","2","pretest","true","3496286","55","../img/tt/1308tt.jpg","","7"
"null","<div style=""font-size:60px;""> </div>","","fixation","html-keyboard-response","488","688892","0.0-2.0-0.81","EV","2","pretest","true","3496286","null","","",""
"null","../img/tt/188tt.jpg","","mooney1","image-keyboard-response","489","691896","0.0-2.0-1.81","EV","2","pretest","true","3496286","null","../img/tt/188tt.jpg","",""
"261","<p></p>","","recognized","html-keyboard-response","490","692159","0.0-2.0-2.81","EV","2","pretest","true","3496286","78","../img/tt/188tt.jpg","n",""
"null","../img/gs/188gs.jpg","","solution","image-keyboard-response","491","694162","0.0-2.0-3.81","EV","2","pretest","true","3496286","null","","",""
"null","../img/tt/188tt.jpg","","mooney2","image-keyboard-response","492","696165","0.0-2.0-4.81","EV","2","pretest","true","3496286","null","","",""
"281","<p>How strong was your <strong>aha-experience</strong>?</p>","","aha","html-keyboard-response","493","696448","0.0-2.0-5.81","EV","2","pretest","true","3496286","49","../img/tt/188tt.jpg","","1"
"null","<div style=""font-size:60px;""> </div>","","fixation","html-keyboard-response","494","696650","0.0-2.0-0.82","EV","2","pretest","true","3496286","null","","",""
"null","../img/tt/1301tt.jpg","","mooney1","image-keyboard-response","495","699654","0.0-2.0-1.82","EV","2","pretest","true","3496286","null","../img/tt/1301tt.jpg","",""
"507","<p></p>","","recognized","html-keyboard-response","496","700163","0.0-2.0-2.82","EV","2","pretest","true","3496286","89","../img/tt/1301tt.jpg","y",""
"null","../img/gs/1301gs.jpg","","solution","image-keyboard-response","497","702165","0.0-2.0-3.82","EV","2","pretest","true","3496286","null","","",""
"null","../img/tt/1301tt.jpg","","mooney2","image-keyboard-response","498","704168","0.0-2.0-4.82","EV","2","pretest","true","3496286","null","","",""
"319","<p>How strong was your <strong>aha-experience</strong>?</p>","","aha","html-keyboard-response","499","704489","0.0-2.0-5.82","EV","2","pretest","true","3496286","51","../img/tt/1301tt.jpg","","3"
"null","<div style=""font-size:60px;""> </div>","","fixation","html-keyboard-response","500","704690","0.0-2.0-0.83","EV","2","pretest","true","3496286","null","","",""
"null","../img/tt/410tt.jpg","","mooney1","image-keyboard-response","501","707694","0.0-2.0-1.83","EV","2","pretest","true","3496286","null","../img/tt/410tt.jpg","",""
"238","<p></p>","","recognized","html-keyboard-response","502","707934","0.0-2.0-2.83","EV","2","pretest","true","3496286","89","../img/tt/410tt.jpg","y",""
"null","../img/gs/410gs.jpg","","solution","image-keyboard-response","503","709937","0.0-2.0-3.83","EV","2","pretest","true","3496286","null","","",""
"null","../img/tt/410tt.jpg","","mooney2","image-keyboard-response","504","711940","0.0-2.0-4.83","EV","2","pretest","true","3496286","null","","",""
"260","<p>How strong was your <strong>aha-experience</strong>?</p>","","aha","html-keyboard-response","505","712202","0.0-2.0-5.83","EV","2","pretest","true","3496286","54","../img/tt/410tt.jpg","","6"
"null","<div style=""font-size:60px;""> </div>","","fixation","html-keyboard-response","506","712404","0.0-2.0-0.84","EV","2","pretest","true","3496286","null","","",""
"null","../img/tt/314tt.jpg","","mooney1","image-keyboard-response","507","715407","0.0-2.0-1.84","EV","2","pretest","true","3496286","null","../img/tt/314tt.jpg","",""
"378","<p></p>","","recognized","html-keyboard-response","508","715787","0.0-2.0-2.84","EV","2","pretest","true","3496286","78","../img/tt/314tt.jpg","n",""
"null","../img/gs/314gs.jpg","","solution","image-keyboard-response","509","717790","0.0-2.0-3.84","EV","2","pretest","true","3496286","null","","",""
"null","../img/tt/314tt.jpg","","mooney2","image-keyboard-response","510","719793","0.0-2.0-4.84","EV","2","pretest","true","3496286","null","","",""
"284","<p>How strong was your <strong>aha-experience</strong>?</p>","","aha","html-keyboard-response","511","720081","0.0-2.0-5.84","EV","2","pretest","true","3496286","49","../img/tt/314tt.jpg","","1"
"null","<div style=""font-size:60px;""> </div>","","fixation","html-keyboard-response","512","720283","0.0-2.0-0.85","EV","2","pretest","true","3496286","null","","",""
"null","../img/tt/1331tt.jpg","","mooney1","image-keyboard-response","513","723286","0.0-2.0-1.85","EV","2","pretest","true","3496286","null","../img/tt/1331tt.jpg","",""
"308","<p></p>","","recognized","html-keyboard-response","514","723595","0.0-2.0-2.85","EV","2","pretest","true","3496286","78","../img/tt/1331tt.jpg","n",""
"null","../img/gs/1331gs.jpg","","solution","image-keyboard-response","515","725598","0.0-2.0-3.85","EV","2","pretest","true","3496286","null","","",""
"null","../img/tt/1331tt.jpg","","mooney2","image-keyboard-response","516","727600","0.0-2.0-4.85","EV","2","pretest","true","3496286","null","","",""
"272","<p>How strong was your <strong>aha-experience</strong>?</p>","","aha","html-keyboard-response","517","727874","0.0-2.0-5.85","EV","2","pretest","true","3496286","53","../img/tt/1331tt.jpg","","5"
"null","<div style=""font-size:60px;""> </div>","","fixation","html-keyboard-response","518","728075","0.0-2.0-0.86","EV","2","pretest","true","3496286","null","","",""
"null","../img/tt/257tt.jpg","","mooney1","image-keyboard-response","519","731078","0.0-2.0-1.86","EV","2","pretest","true","3496286","null","../img/tt/257tt.jpg","",""
"293","<p></p>","","recognized","html-keyboard-response","520","731373","0.0-2.0-2.86","EV","2","pretest","true","3496286","89","../img/tt/257tt.jpg","y",""
"null","../img/gs/257gs.jpg","","solution","image-keyboard-response","521","733376","0.0-2.0-3.86","EV","2","pretest","true","3496286","null","","",""
"null","../img/tt/257tt.jpg","","mooney2","image-keyboard-response","522","735378","0.0-2.0-4.86","EV","2","pretest","true","3496286","null","","",""
"1135","<p>How strong was your <strong>aha-experience</strong>?</p>","","aha","html-keyboard-response","523","736516","0.0-2.0-5.86","EV","2","pretest","true","3496286","51","../img/tt/257tt.jpg","","3"
"null","<div style=""font-size:60px;""> </div>","","fixation","html-keyboard-response","524","736719","0.0-2.0-0.87","EV","2","pretest","true","3496286","null","","",""
"null","../img/tt/303tt.jpg","","mooney1","image-keyboard-response","525","739722","0.0-2.0-1.87","EV","2","pretest","true","3496286","null","../img/tt/303tt.jpg","",""
"277","<p></p>","","recognized","html-keyboard-response","526","740001","0.0-2.0-2.87","EV","2","pretest","true","3496286","78","../img/tt/303tt.jpg","n",""
"null","../img/gs/303gs.jpg","","solution","image-keyboard-response","527","742003","0.0-2.0-3.87","EV","2","pretest","true","3496286","null","","",""
"null","../img/tt/303tt.jpg","","mooney2","image-keyboard-response","528","744007","0.0-2.0-4.87","EV","2","pretest","true","3496286","null","","",""
"299","<p>How strong was your <strong>aha-experience</strong>?</p>","","aha","html-keyboard-response","529","744308","0.0-2.0-5.87","EV","2","pretest","true","3496286","51","../img/tt/303tt.jpg","","3"
"null","<div style=""font-size:60px;""> </div>","","fixation","html-keyboard-response","530","744512","0.0-2.0-0.88","EV","2","pretest","true","3496286","null","","",""
"null","../img/tt/469tt.jpg","","mooney1","image-keyboard-response","531","747516","0.0-2.0-1.88","EV","2","pretest","true","3496286","null","../img/tt/469tt.jpg","",""
"281","<p></p>","","recognized","html-keyboard-response","532","747799","0.0-2.0-2.88","EV","2","pretest","true","3496286","89","../img/tt/469tt.jpg","y",""
"null","../img/gs/469gs.jpg","","solution","image-keyboard-response","533","749802","0.0-2.0-3.88","EV","2","pretest","true","3496286","null","","",""
"null","../img/tt/469tt.jpg","","mooney2","image-keyboard-response","534","751805","0.0-2.0-4.88","EV","2","pretest","true","3496286","null","","",""
"303","<p>How strong was your <strong>aha-experience</strong>?</p>","","aha","html-keyboard-response","535","752111","0.0-2.0-5.88","EV","2","pretest","true","3496286","53","../img/tt/469tt.jpg","","5"
"null","<div style=""font-size:60px;""> </div>","","fixation","html-keyboard-response","536","752314","0.0-2.0-0.89","EV","2","pretest","true","3496286","null","","",""
"null","../img/tt/348tt.jpg","","mooney1","image-keyboard-response","537","755317","0.0-2.0-1.89","EV","2","pretest","true","3496286","null","../img/tt/348tt.jpg","",""
"1296","<p></p>","","recognized","html-keyboard-response","538","756614","0.0-2.0-2.89","EV","2","pretest","true","3496286","78","../img/tt/348tt.jpg","n",""
"null","../img/gs/348gs.jpg","","solution","image-keyboard-response","539","758616","0.0-2.0-3.89","EV","2","pretest","true","3496286","null","","",""
"null","../img/tt/348tt.jpg","","mooney2","image-keyboard-response","540","760619","0.0-2.0-4.89","EV","2","pretest","true","3496286","null","","",""
"303","<p>How strong was your <strong>aha-experience</strong>?</p>","","aha","html-keyboard-response","541","760923","0.0-2.0-5.89","EV","2","pretest","true","3496286","54","../img/tt/348tt.jpg","","6"
"null","<div style=""font-size:60px;""> </div>","","fixation","html-keyboard-response","542","761124","0.0-2.0-0.90","EV","2","pretest","true","3496286","null","","",""
"null","../img/tt/173tt.jpg","","mooney1","image-keyboard-response","543","764128","0.0-2.0-1.90","EV","2","pretest","true","3496286","null","../img/tt/173tt.jpg","",""
"421","<p></p>","","recognized","html-keyboard-response","544","764550","0.0-2.0-2.90","EV","2","pretest","true","3496286","78","../img/tt/173tt.jpg","n",""
"null","../img/gs/173gs.jpg","","solution","image-keyboard-response","545","766552","0.0-2.0-3.90","EV","2","pretest","true","3496286","null","","",""
"null","../img/tt/173tt.jpg","","mooney2","image-keyboard-response","546","768554","0.0-2.0-4.90","EV","2","pretest","true","3496286","null","","",""
"310","<p>How strong was your <strong>aha-experience</strong>?</p>","","aha","html-keyboard-response","547","768867","0.0-2.0-5.90","EV","2","pretest","true","3496286","53","../img/tt/173tt.jpg","","5"
"null","<div style=""font-size:60px;""> </div>","","fixation","html-keyboard-response","548","769070","0.0-2.0-0.91","EV","2","pretest","true","3496286","null","","",""
"null","../img/tt/301tt.jpg","","mooney1","image-keyboard-response","549","772073","0.0-2.0-1.91","EV","2","pretest","true","3496286","null","../img/tt/301tt.jpg","",""
"260","<p></p>","","recognized","html-keyboard-response","550","772335","0.0-2.0-2.91","EV","2","pretest","true","3496286","78","../img/tt/301tt.jpg","n",""
"null","../img/gs/301gs.jpg","","solution","image-keyboard-response","551","774337","0.0-2.0-3.91","EV","2","pretest","true","3496286","null","","",""
"null","../img/tt/301tt.jpg","","mooney2","image-keyboard-response","552","776340","0.0-2.0-4.91","EV","2","pretest","true","3496286","null","","",""
"324","<p>How strong was your <strong>aha-experience</strong>?</p>","","aha","html-keyboard-response","553","776666","0.0-2.0-5.91","EV","2","pretest","true","3496286","53","../img/tt/301tt.jpg","","5"
"null","<div style=""font-size:60px;""> </div>","","fixation","html-keyboard-response","554","776868","0.0-2.0-0.92","EV","2","pretest","true","3496286","null","","",""
"null","../img/tt/190tt.jpg","","mooney1","image-keyboard-response","555","779872","0.0-2.0-1.92","EV","2","pretest","true","3496286","null","../img/tt/190tt.jpg","",""
"245","<p></p>","","recognized","html-keyboard-response","556","780119","0.0-2.0-2.92","EV","2","pretest","true","3496286","89","../img/tt/190tt.jpg","y",""
"null","../img/gs/190gs.jpg","","solution","image-keyboard-response","557","782121","0.0-2.0-3.92","EV","2","pretest","true","3496286","null","","",""
"null","../img/tt/190tt.jpg","","mooney2","image-keyboard-response","558","784124","0.0-2.0-4.92","EV","2","pretest","true","3496286","null","","",""
"268","<p>How strong was your <strong>aha-experience</strong>?</p>","","aha","html-keyboard-response","559","784394","0.0-2.0-5.92","EV","2","pretest","true","3496286","51","../img/tt/190tt.jpg","","3"
"null","<div style=""font-size:60px;""> </div>","","fixation","html-keyboard-response","560","784596","0.0-2.0-0.93","EV","2","pretest","true","3496286","null","","",""
"null","../img/tt/529tt.jpg","","mooney1","image-keyboard-response","561","787598","0.0-2.0-1.93","EV","2","pretest","true","3496286","null","../img/tt/529tt.jpg","",""
"285","<p></p>","","recognized","html-keyboard-response","562","787886","0.0-2.0-2.93","EV","2","pretest","true","3496286","89","../img/tt/529tt.jpg","y",""
"null","../img/gs/529gs.jpg","","solution","image-keyboard-response","563","789890","0.0-2.0-3.93","EV","2","pretest","true","3496286","null","","",""
"null","../img/tt/529tt.jpg","","mooney2","image-keyboard-response","564","791892","0.0-2.0-4.93","EV","2","pretest","true","3496286","null","","",""
"2109","<p>How strong was your <strong>aha-experience</strong>?</p>","","aha","html-keyboard-response","565","794005","0.0-2.0-5.93","EV","2","pretest","true","3496286","49","../img/tt/529tt.jpg","","1"
"null","<div style=""font-size:60px;""> </div>","","fixation","html-keyboard-response","566","794206","0.0-2.0-0.94","EV","2","pretest","true","3496286","null","","",""
"null","../img/tt/525tt.jpg","","mooney1","image-keyboard-response","567","797211","0.0-2.0-1.94","EV","2","pretest","true","3496286","null","../img/tt/525tt.jpg","",""
"52527","<p></p>","","recognized","html-keyboard-response","568","849740","0.0-2.0-2.94","EV","2","pretest","true","3496286","78","../img/tt/525tt.jpg","n",""
"null","../img/gs/525gs.jpg","","solution","image-keyboard-response","569","851744","0.0-2.0-3.94","EV","2","pretest","true","3496286","null","","",""
"null","../img/tt/525tt.jpg","","mooney2","image-keyboard-response","570","853747","0.0-2.0-4.94","EV","2","pretest","true","3496286","null","","",""
"263","<p>How strong was your <strong>aha-experience</strong>?</p>","","aha","html-keyboard-response","571","854011","0.0-2.0-5.94","EV","2","pretest","true","3496286","54","../img/tt/525tt.jpg","","6"
