"rt","stimulus","button_pressed","test_part","trial_type","trial_index","time_elapsed","internal_node_id","subject","session","experiment_name","complete","totalTime","key_press","currentStim","recognized","aha"
"34747","<div style='word-wrap: break-word; width: 900px'><h3>Please consider this information carefully before deciding whether to participate in this research</h3><ul style='text-align: left; font-size: .8em;'><li><b>Purpose of the research</b>: To examine how people process images.</li><li><b>What you will do in this research</b>:  Stimuli (images) will be presented on the computer and you will be asked different questions about them.</li><li><b>Time required</b>: Participation will take max 60 minutes to complete.</li><li><b>Risks</b>:  There are no anticipated risks associated with participating in this study. The effects of participating should be comparable to those you would experience from viewing a computer monitor for 60 minutes and using a mouse or keyboard.</li><li><b>Benefits</b>:  This study provides no benefits to you individually. The study provides important information about the nature of perception and learning.</li><li><b>Confidentiality</b>:  Your participation in this study will remain confidential. No personally identifiable information will be associated with your data. Your de-identified data may be shared with other researchers and used in future projects.</li><li><b>Participation and withdrawal</b>:  Your participation in this study is completely voluntary and you may refuse to participate or you may choose to withdraw at any time without penalty.</li><li><b>How to contact the researchers</b>: If you have questions or concerns about your participation or payment, or want to request a summary of research findings, please contact Sander Van de Cruys (KU Leuven), at sander.vandecruys@kuleuven.be.</li></ul><p>The nature and purpose of this research have been sufficiently explained and I agree to participate in this study.  I understand that I am free to withdraw at any time without incurring any penalty.</p><p>Please consent by clicking the button below to continue. Otherwise, please exit the study at this time.</p></div>","0","instructions","html-button-response","0","34752","0.0-0.0","JW","1","pretest","true","3676266","","","",""
"169519","<div style='word-wrap: break-word; width: 900px'><h3>Instructions</h3><p>In this experiment you will see a series of distorted images like the one below on the left. As you can see in the righthand image, the distorted images are derived from actual photographs.In what follows, you will <strong>briefly</strong> be presented with <strong>only</strong> the distorted image.</p> <div style='float: left; margin-right: 20px;'><img src='../img/018tt.jpg' height='250' width='250'></img></div><div style='float: right; margin-left: 20px;'><img src='../img/018gs.jpg' height='250' width='250'></img></div><p>To be useful for future research, we need to select those images that people can generally not solve on their own. Therefore we'll show you the distorted image and ask you to indicate (yes or no) whether you already recognized what was in the image. This is not a competition, so please respond truthfully. We don't ask or check your answer, we just want to know whether you think you recognized it. All images depict objects from one of these broad level categories: animals, inanimate objects, plants, sports, vehicles, and food. Recognizing means knowing more than these broad labels for a given image. It means knowing at least the basic level category of the main object in the image, for example when you see a parrot in the image, 'parrot' will obviously be a correct answer but also correct is 'bird', but not 'animal' (the broad level category). For the example above, 'rose' would be correct or 'flower', but not 'plant'. When soccer players are depicted, you don't recognize the image when you just see 'humans', 'outdoors', or 'sports'. Note that complete certainty about your answer is not necessary, it's enough to have a good, definite guess on the object, to say 'yes, I recognized it'.</p><p>One additional question will be asked after we've revealed the solution: You'll be asked to indicate how strong your <strong>aha-experience</strong> was. This describes the positive 'click' you sometimes experience, when the pieces of the 'puzzle' fall together and you suddenly have 'insight' in the image. It describes how good you felt the 'fit' was between the distorted image and the solution.</p><p>Press any key to start.</p></div>","","instructions","html-keyboard-response","1","204274","0.0-1.0","JW","1","pretest","true","3676266","32","","",""
"null","<div style=""font-size:60px;""> </div>","","fixation","html-keyboard-response","2","204480","0.0-2.0-0.0","JW","1","pretest","true","3676266","null","","",""
"null","../img/tt/060tt.jpg","","mooney1","image-keyboard-response","3","207490","0.0-2.0-1.0","JW","1","pretest","true","3676266","null","../img/tt/060tt.jpg","",""
"2683","<p></p>","","recognized","html-keyboard-response","4","210175","0.0-2.0-2.0","JW","1","pretest","true","3676266","78","../img/tt/060tt.jpg","n",""
"null","../img/gs/060gs.jpg","","solution","image-keyboard-response","5","212193","0.0-2.0-3.0","JW","1","pretest","true","3676266","null","","",""
"null","../img/tt/060tt.jpg","","mooney2","image-keyboard-response","6","214180","0.0-2.0-4.0","JW","1","pretest","true","3676266","null","","",""
"9882","<p>How strong was your <strong>aha-experience</strong>?</p>","","aha","html-keyboard-response","7","224063","0.0-2.0-5.0","JW","1","pretest","true","3676266","53","../img/tt/060tt.jpg","","5"
"null","<div style=""font-size:60px;""> </div>","","fixation","html-keyboard-response","8","224268","0.0-2.0-0.1","JW","1","pretest","true","3676266","null","","",""
"null","../img/tt/1117tt.jpg","","mooney1","image-keyboard-response","9","227272","0.0-2.0-1.1","JW","1","pretest","true","3676266","null","../img/tt/1117tt.jpg","",""
"1763","<p></p>","","recognized","html-keyboard-response","10","229036","0.0-2.0-2.1","JW","1","pretest","true","3676266","89","../img/tt/1117tt.jpg","y",""
"null","../img/gs/1117gs.jpg","","solution","image-keyboard-response","11","231040","0.0-2.0-3.1","JW","1","pretest","true","3676266","null","","",""
"null","../img/tt/1117tt.jpg","","mooney2","image-keyboard-response","12","233042","0.0-2.0-4.1","JW","1","pretest","true","3676266","null","","",""
"3875","<p>How strong was your <strong>aha-experience</strong>?</p>","","aha","html-keyboard-response","13","236918","0.0-2.0-5.1","JW","1","pretest","true","3676266","51","../img/tt/1117tt.jpg","","3"
"null","<div style=""font-size:60px;""> </div>","","fixation","html-keyboard-response","14","237135","0.0-2.0-0.2","JW","1","pretest","true","3676266","null","","",""
"null","../img/tt/048tt.jpg","","mooney1","image-keyboard-response","15","240140","0.0-2.0-1.2","JW","1","pretest","true","3676266","null","../img/tt/048tt.jpg","",""
"1398","<p></p>","","recognized","html-keyboard-response","16","241538","0.0-2.0-2.2","JW","1","pretest","true","3676266","78","../img/tt/048tt.jpg","n",""
"null","../img/gs/048gs.jpg","","solution","image-keyboard-response","17","243540","0.0-2.0-3.2","JW","1","pretest","true","3676266","null","","",""
"null","../img/tt/048tt.jpg","","mooney2","image-keyboard-response","18","245542","0.0-2.0-4.2","JW","1","pretest","true","3676266","null","","",""
"2014","<p>How strong was your <strong>aha-experience</strong>?</p>","","aha","html-keyboard-response","19","247557","0.0-2.0-5.2","JW","1","pretest","true","3676266","53","../img/tt/048tt.jpg","","5"
"null","<div style=""font-size:60px;""> </div>","","fixation","html-keyboard-response","20","247764","0.0-2.0-0.3","JW","1","pretest","true","3676266","null","","",""
"null","../img/tt/1033tt.jpg","","mooney1","image-keyboard-response","21","250782","0.0-2.0-1.3","JW","1","pretest","true","3676266","null","../img/tt/1033tt.jpg","",""
"1800","<p></p>","","recognized","html-keyboard-response","22","252584","0.0-2.0-2.3","JW","1","pretest","true","3676266","78","../img/tt/1033tt.jpg","n",""
"null","../img/gs/1033gs.jpg","","solution","image-keyboard-response","23","254603","0.0-2.0-3.3","JW","1","pretest","true","3676266","null","","",""
"null","../img/tt/1033tt.jpg","","mooney2","image-keyboard-response","24","256589","0.0-2.0-4.3","JW","1","pretest","true","3676266","null","","",""
"2775","<p>How strong was your <strong>aha-experience</strong>?</p>","","aha","html-keyboard-response","25","259367","0.0-2.0-5.3","JW","1","pretest","true","3676266","53","../img/tt/1033tt.jpg","","5"
"null","<div style=""font-size:60px;""> </div>","","fixation","html-keyboard-response","26","259569","0.0-2.0-0.4","JW","1","pretest","true","3676266","null","","",""
"null","../img/tt/1003tt.jpg","","mooney1","image-keyboard-response","27","262575","0.0-2.0-1.4","JW","1","pretest","true","3676266","null","../img/tt/1003tt.jpg","",""
"624","<p></p>","","recognized","html-keyboard-response","28","263200","0.0-2.0-2.4","JW","1","pretest","true","3676266","78","../img/tt/1003tt.jpg","n",""
"null","../img/gs/1003gs.jpg","","solution","image-keyboard-response","29","265206","0.0-2.0-3.4","JW","1","pretest","true","3676266","null","","",""
"null","../img/tt/1003tt.jpg","","mooney2","image-keyboard-response","30","267208","0.0-2.0-4.4","JW","1","pretest","true","3676266","null","","",""
"1760","<p>How strong was your <strong>aha-experience</strong>?</p>","","aha","html-keyboard-response","31","268971","0.0-2.0-5.4","JW","1","pretest","true","3676266","52","../img/tt/1003tt.jpg","","4"
"null","<div style=""font-size:60px;""> </div>","","fixation","html-keyboard-response","32","269172","0.0-2.0-0.5","JW","1","pretest","true","3676266","null","","",""
"null","../img/tt/1005tt.jpg","","mooney1","image-keyboard-response","33","272177","0.0-2.0-1.5","JW","1","pretest","true","3676266","null","../img/tt/1005tt.jpg","",""
"2289","<p></p>","","recognized","html-keyboard-response","34","274467","0.0-2.0-2.5","JW","1","pretest","true","3676266","89","../img/tt/1005tt.jpg","y",""
"null","../img/gs/1005gs.jpg","","solution","image-keyboard-response","35","276485","0.0-2.0-3.5","JW","1","pretest","true","3676266","null","","",""
"null","../img/tt/1005tt.jpg","","mooney2","image-keyboard-response","36","278486","0.0-2.0-4.5","JW","1","pretest","true","3676266","null","","",""
"3632","<p>How strong was your <strong>aha-experience</strong>?</p>","","aha","html-keyboard-response","37","282119","0.0-2.0-5.5","JW","1","pretest","true","3676266","50","../img/tt/1005tt.jpg","","2"
"null","<div style=""font-size:60px;""> </div>","","fixation","html-keyboard-response","38","282323","0.0-2.0-0.6","JW","1","pretest","true","3676266","null","","",""
"null","../img/tt/1200tt.jpg","","mooney1","image-keyboard-response","39","285327","0.0-2.0-1.6","JW","1","pretest","true","3676266","null","../img/tt/1200tt.jpg","",""
"2085","<p></p>","","recognized","html-keyboard-response","40","287414","0.0-2.0-2.6","JW","1","pretest","true","3676266","89","../img/tt/1200tt.jpg","y",""
"null","../img/gs/1200gs.jpg","","solution","image-keyboard-response","41","289419","0.0-2.0-3.6","JW","1","pretest","true","3676266","null","","",""
"null","../img/tt/1200tt.jpg","","mooney2","image-keyboard-response","42","291421","0.0-2.0-4.6","JW","1","pretest","true","3676266","null","","",""
"2769","<p>How strong was your <strong>aha-experience</strong>?</p>","","aha","html-keyboard-response","43","294191","0.0-2.0-5.6","JW","1","pretest","true","3676266","51","../img/tt/1200tt.jpg","","3"
"null","<div style=""font-size:60px;""> </div>","","fixation","html-keyboard-response","44","294393","0.0-2.0-0.7","JW","1","pretest","true","3676266","null","","",""
"null","../img/tt/1249tt.jpg","","mooney1","image-keyboard-response","45","297410","0.0-2.0-1.7","JW","1","pretest","true","3676266","null","../img/tt/1249tt.jpg","",""
"1635","<p></p>","","recognized","html-keyboard-response","46","299047","0.0-2.0-2.7","JW","1","pretest","true","3676266","89","../img/tt/1249tt.jpg","y",""
"null","../img/gs/1249gs.jpg","","solution","image-keyboard-response","47","301051","0.0-2.0-3.7","JW","1","pretest","true","3676266","null","","",""
"null","../img/tt/1249tt.jpg","","mooney2","image-keyboard-response","48","303052","0.0-2.0-4.7","JW","1","pretest","true","3676266","null","","",""
"1828","<p>How strong was your <strong>aha-experience</strong>?</p>","","aha","html-keyboard-response","49","304881","0.0-2.0-5.7","JW","1","pretest","true","3676266","51","../img/tt/1249tt.jpg","","3"
"null","<div style=""font-size:60px;""> </div>","","fixation","html-keyboard-response","50","305085","0.0-2.0-0.8","JW","1","pretest","true","3676266","null","","",""
"null","../img/tt/1171tt.jpg","","mooney1","image-keyboard-response","51","308090","0.0-2.0-1.8","JW","1","pretest","true","3676266","null","../img/tt/1171tt.jpg","",""
"1211","<p></p>","","recognized","html-keyboard-response","52","309302","0.0-2.0-2.8","JW","1","pretest","true","3676266","78","../img/tt/1171tt.jpg","n",""
"null","../img/gs/1171gs.jpg","","solution","image-keyboard-response","53","311308","0.0-2.0-3.8","JW","1","pretest","true","3676266","null","","",""
"null","../img/tt/1171tt.jpg","","mooney2","image-keyboard-response","54","313313","0.0-2.0-4.8","JW","1","pretest","true","3676266","null","","",""
"1266","<p>How strong was your <strong>aha-experience</strong>?</p>","","aha","html-keyboard-response","55","314580","0.0-2.0-5.8","JW","1","pretest","true","3676266","52","../img/tt/1171tt.jpg","","4"
"null","<div style=""font-size:60px;""> </div>","","fixation","html-keyboard-response","56","314785","0.0-2.0-0.9","JW","1","pretest","true","3676266","null","","",""
"null","../img/tt/119tt.jpg","","mooney1","image-keyboard-response","57","317788","0.0-2.0-1.9","JW","1","pretest","true","3676266","null","../img/tt/119tt.jpg","",""
"1213","<p></p>","","recognized","html-keyboard-response","58","319003","0.0-2.0-2.9","JW","1","pretest","true","3676266","78","../img/tt/119tt.jpg","n",""
"null","../img/gs/119gs.jpg","","solution","image-keyboard-response","59","321022","0.0-2.0-3.9","JW","1","pretest","true","3676266","null","","",""
"null","../img/tt/119tt.jpg","","mooney2","image-keyboard-response","60","323007","0.0-2.0-4.9","JW","1","pretest","true","3676266","null","","",""
"919","<p>How strong was your <strong>aha-experience</strong>?</p>","","aha","html-keyboard-response","61","323927","0.0-2.0-5.9","JW","1","pretest","true","3676266","52","../img/tt/119tt.jpg","","4"
"null","<div style=""font-size:60px;""> </div>","","fixation","html-keyboard-response","62","324133","0.0-2.0-0.10","JW","1","pretest","true","3676266","null","","",""
"null","../img/tt/1113tt.jpg","","mooney1","image-keyboard-response","63","327137","0.0-2.0-1.10","JW","1","pretest","true","3676266","null","../img/tt/1113tt.jpg","",""
"1895","<p></p>","","recognized","html-keyboard-response","64","329033","0.0-2.0-2.10","JW","1","pretest","true","3676266","89","../img/tt/1113tt.jpg","y",""
"null","../img/gs/1113gs.jpg","","solution","image-keyboard-response","65","331051","0.0-2.0-3.10","JW","1","pretest","true","3676266","null","","",""
"null","../img/tt/1113tt.jpg","","mooney2","image-keyboard-response","66","333039","0.0-2.0-4.10","JW","1","pretest","true","3676266","null","","",""
"2844","<p>How strong was your <strong>aha-experience</strong>?</p>","","aha","html-keyboard-response","67","335883","0.0-2.0-5.10","JW","1","pretest","true","3676266","52","../img/tt/1113tt.jpg","","4"
"null","<div style=""font-size:60px;""> </div>","","fixation","html-keyboard-response","68","336088","0.0-2.0-0.11","JW","1","pretest","true","3676266","null","","",""
"null","../img/tt/1039tt.jpg","","mooney1","image-keyboard-response","69","339092","0.0-2.0-1.11","JW","1","pretest","true","3676266","null","../img/tt/1039tt.jpg","",""
"1761","<p></p>","","recognized","html-keyboard-response","70","340853","0.0-2.0-2.11","JW","1","pretest","true","3676266","89","../img/tt/1039tt.jpg","y",""
"null","../img/gs/1039gs.jpg","","solution","image-keyboard-response","71","342874","0.0-2.0-3.11","JW","1","pretest","true","3676266","null","","",""
"null","../img/tt/1039tt.jpg","","mooney2","image-keyboard-response","72","344862","0.0-2.0-4.11","JW","1","pretest","true","3676266","null","","",""
"1173","<p>How strong was your <strong>aha-experience</strong>?</p>","","aha","html-keyboard-response","73","346036","0.0-2.0-5.11","JW","1","pretest","true","3676266","51","../img/tt/1039tt.jpg","","3"
"null","<div style=""font-size:60px;""> </div>","","fixation","html-keyboard-response","74","346241","0.0-2.0-0.12","JW","1","pretest","true","3676266","null","","",""
"null","../img/tt/1196tt.jpg","","mooney1","image-keyboard-response","75","349248","0.0-2.0-1.12","JW","1","pretest","true","3676266","null","../img/tt/1196tt.jpg","",""
"1102","<p></p>","","recognized","html-keyboard-response","76","350350","0.0-2.0-2.12","JW","1","pretest","true","3676266","78","../img/tt/1196tt.jpg","n",""
"null","../img/gs/1196gs.jpg","","solution","image-keyboard-response","77","352369","0.0-2.0-3.12","JW","1","pretest","true","3676266","null","","",""
"null","../img/tt/1196tt.jpg","","mooney2","image-keyboard-response","78","354356","0.0-2.0-4.12","JW","1","pretest","true","3676266","null","","",""
"1200","<p>How strong was your <strong>aha-experience</strong>?</p>","","aha","html-keyboard-response","79","355559","0.0-2.0-5.12","JW","1","pretest","true","3676266","54","../img/tt/1196tt.jpg","","6"
"null","<div style=""font-size:60px;""> </div>","","fixation","html-keyboard-response","80","355761","0.0-2.0-0.13","JW","1","pretest","true","3676266","null","","",""
"null","../img/tt/1024tt.jpg","","mooney1","image-keyboard-response","81","358765","0.0-2.0-1.13","JW","1","pretest","true","3676266","null","../img/tt/1024tt.jpg","",""
"1224","<p></p>","","recognized","html-keyboard-response","82","359989","0.0-2.0-2.13","JW","1","pretest","true","3676266","78","../img/tt/1024tt.jpg","n",""
"null","../img/gs/1024gs.jpg","","solution","image-keyboard-response","83","362007","0.0-2.0-3.13","JW","1","pretest","true","3676266","null","","",""
"null","../img/tt/1024tt.jpg","","mooney2","image-keyboard-response","84","363993","0.0-2.0-4.13","JW","1","pretest","true","3676266","null","","",""
"2284","<p>How strong was your <strong>aha-experience</strong>?</p>","","aha","html-keyboard-response","85","366278","0.0-2.0-5.13","JW","1","pretest","true","3676266","53","../img/tt/1024tt.jpg","","5"
"null","<div style=""font-size:60px;""> </div>","","fixation","html-keyboard-response","86","366481","0.0-2.0-0.14","JW","1","pretest","true","3676266","null","","",""
"null","../img/tt/103tt.jpg","","mooney1","image-keyboard-response","87","369486","0.0-2.0-1.14","JW","1","pretest","true","3676266","null","../img/tt/103tt.jpg","",""
"507","<p></p>","","recognized","html-keyboard-response","88","369993","0.0-2.0-2.14","JW","1","pretest","true","3676266","78","../img/tt/103tt.jpg","n",""
"null","../img/gs/103gs.jpg","","solution","image-keyboard-response","89","372011","0.0-2.0-3.14","JW","1","pretest","true","3676266","null","","",""
"null","../img/tt/103tt.jpg","","mooney2","image-keyboard-response","90","374013","0.0-2.0-4.14","JW","1","pretest","true","3676266","null","","",""
"1690","<p>How strong was your <strong>aha-experience</strong>?</p>","","aha","html-keyboard-response","91","375704","0.0-2.0-5.14","JW","1","pretest","true","3676266","51","../img/tt/103tt.jpg","","3"
"null","<div style=""font-size:60px;""> </div>","","fixation","html-keyboard-response","92","375910","0.0-2.0-0.15","JW","1","pretest","true","3676266","null","","",""
"null","../img/tt/1060tt.jpg","","mooney1","image-keyboard-response","93","378913","0.0-2.0-1.15","JW","1","pretest","true","3676266","null","../img/tt/1060tt.jpg","",""
"1435","<p></p>","","recognized","html-keyboard-response","94","380348","0.0-2.0-2.15","JW","1","pretest","true","3676266","89","../img/tt/1060tt.jpg","y",""
"null","../img/gs/1060gs.jpg","","solution","image-keyboard-response","95","382367","0.0-2.0-3.15","JW","1","pretest","true","3676266","null","","",""
"null","../img/tt/1060tt.jpg","","mooney2","image-keyboard-response","96","384369","0.0-2.0-4.15","JW","1","pretest","true","3676266","null","","",""
"1750","<p>How strong was your <strong>aha-experience</strong>?</p>","","aha","html-keyboard-response","97","386121","0.0-2.0-5.15","JW","1","pretest","true","3676266","51","../img/tt/1060tt.jpg","","3"
"null","<div style=""font-size:60px;""> </div>","","fixation","html-keyboard-response","98","386323","0.0-2.0-0.16","JW","1","pretest","true","3676266","null","","",""
"null","../img/tt/1245tt.jpg","","mooney1","image-keyboard-response","99","389340","0.0-2.0-1.16","JW","1","pretest","true","3676266","null","../img/tt/1245tt.jpg","",""
"644","<p></p>","","recognized","html-keyboard-response","100","389987","0.0-2.0-2.16","JW","1","pretest","true","3676266","89","../img/tt/1245tt.jpg","y",""
"null","../img/gs/1245gs.jpg","","solution","image-keyboard-response","101","392005","0.0-2.0-3.16","JW","1","pretest","true","3676266","null","","",""
"null","../img/tt/1245tt.jpg","","mooney2","image-keyboard-response","102","393994","0.0-2.0-4.16","JW","1","pretest","true","3676266","null","","",""
"907","<p>How strong was your <strong>aha-experience</strong>?</p>","","aha","html-keyboard-response","103","394902","0.0-2.0-5.16","JW","1","pretest","true","3676266","50","../img/tt/1245tt.jpg","","2"
"null","<div style=""font-size:60px;""> </div>","","fixation","html-keyboard-response","104","395108","0.0-2.0-0.17","JW","1","pretest","true","3676266","null","","",""
"null","../img/tt/1222tt.jpg","","mooney1","image-keyboard-response","105","398110","0.0-2.0-1.17","JW","1","pretest","true","3676266","null","../img/tt/1222tt.jpg","",""
"1055","<p></p>","","recognized","html-keyboard-response","106","399168","0.0-2.0-2.17","JW","1","pretest","true","3676266","78","../img/tt/1222tt.jpg","n",""
"null","../img/gs/1222gs.jpg","","solution","image-keyboard-response","107","401171","0.0-2.0-3.17","JW","1","pretest","true","3676266","null","","",""
"null","../img/tt/1222tt.jpg","","mooney2","image-keyboard-response","108","403174","0.0-2.0-4.17","JW","1","pretest","true","3676266","null","","",""
"211","<p>How strong was your <strong>aha-experience</strong>?</p>","","aha","html-keyboard-response","109","403386","0.0-2.0-5.17","JW","1","pretest","true","3676266","52","../img/tt/1222tt.jpg","","4"
"null","<div style=""font-size:60px;""> </div>","","fixation","html-keyboard-response","110","403589","0.0-2.0-0.18","JW","1","pretest","true","3676266","null","","",""
"null","../img/tt/1100tt.jpg","","mooney1","image-keyboard-response","111","406595","0.0-2.0-1.18","JW","1","pretest","true","3676266","null","../img/tt/1100tt.jpg","",""
"1258","<p></p>","","recognized","html-keyboard-response","112","407853","0.0-2.0-2.18","JW","1","pretest","true","3676266","89","../img/tt/1100tt.jpg","y",""
"null","../img/gs/1100gs.jpg","","solution","image-keyboard-response","113","409872","0.0-2.0-3.18","JW","1","pretest","true","3676266","null","","",""
"null","../img/tt/1100tt.jpg","","mooney2","image-keyboard-response","114","411861","0.0-2.0-4.18","JW","1","pretest","true","3676266","null","","",""
"143","<p>How strong was your <strong>aha-experience</strong>?</p>","","aha","html-keyboard-response","115","412005","0.0-2.0-5.18","JW","1","pretest","true","3676266","51","../img/tt/1100tt.jpg","","3"
"null","<div style=""font-size:60px;""> </div>","","fixation","html-keyboard-response","116","412208","0.0-2.0-0.19","JW","1","pretest","true","3676266","null","","",""
"null","../img/tt/1129tt.jpg","","mooney1","image-keyboard-response","117","415211","0.0-2.0-1.19","JW","1","pretest","true","3676266","null","../img/tt/1129tt.jpg","",""
"1174","<p></p>","","recognized","html-keyboard-response","118","416386","0.0-2.0-2.19","JW","1","pretest","true","3676266","89","../img/tt/1129tt.jpg","y",""
"null","../img/gs/1129gs.jpg","","solution","image-keyboard-response","119","418404","0.0-2.0-3.19","JW","1","pretest","true","3676266","null","","",""
"null","../img/tt/1129tt.jpg","","mooney2","image-keyboard-response","120","420391","0.0-2.0-4.19","JW","1","pretest","true","3676266","null","","",""
"578","<p>How strong was your <strong>aha-experience</strong>?</p>","","aha","html-keyboard-response","121","420969","0.0-2.0-5.19","JW","1","pretest","true","3676266","51","../img/tt/1129tt.jpg","","3"
"null","<div style=""font-size:60px;""> </div>","","fixation","html-keyboard-response","122","421178","0.0-2.0-0.20","JW","1","pretest","true","3676266","null","","",""
"null","../img/tt/009tt.jpg","","mooney1","image-keyboard-response","123","424183","0.0-2.0-1.20","JW","1","pretest","true","3676266","null","../img/tt/009tt.jpg","",""
"1358","<p></p>","","recognized","html-keyboard-response","124","425543","0.0-2.0-2.20","JW","1","pretest","true","3676266","78","../img/tt/009tt.jpg","n",""
"null","../img/gs/009gs.jpg","","solution","image-keyboard-response","125","427559","0.0-2.0-3.20","JW","1","pretest","true","3676266","null","","",""
"null","../img/tt/009tt.jpg","","mooney2","image-keyboard-response","126","429549","0.0-2.0-4.20","JW","1","pretest","true","3676266","null","","",""
"1547","<p>How strong was your <strong>aha-experience</strong>?</p>","","aha","html-keyboard-response","127","431097","0.0-2.0-5.20","JW","1","pretest","true","3676266","53","../img/tt/009tt.jpg","","5"
"null","<div style=""font-size:60px;""> </div>","","fixation","html-keyboard-response","128","431303","0.0-2.0-0.21","JW","1","pretest","true","3676266","null","","",""
"null","../img/tt/049tt.jpg","","mooney1","image-keyboard-response","129","434321","0.0-2.0-1.21","JW","1","pretest","true","3676266","null","../img/tt/049tt.jpg","",""
"1139","<p></p>","","recognized","html-keyboard-response","130","435461","0.0-2.0-2.21","JW","1","pretest","true","3676266","78","../img/tt/049tt.jpg","n",""
"null","../img/gs/049gs.jpg","","solution","image-keyboard-response","131","437467","0.0-2.0-3.21","JW","1","pretest","true","3676266","null","","",""
"null","../img/tt/049tt.jpg","","mooney2","image-keyboard-response","132","439472","0.0-2.0-4.21","JW","1","pretest","true","3676266","null","","",""
"1478","<p>How strong was your <strong>aha-experience</strong>?</p>","","aha","html-keyboard-response","133","440952","0.0-2.0-5.21","JW","1","pretest","true","3676266","52","../img/tt/049tt.jpg","","4"
"null","<div style=""font-size:60px;""> </div>","","fixation","html-keyboard-response","134","441155","0.0-2.0-0.22","JW","1","pretest","true","3676266","null","","",""
"null","../img/tt/1278tt.jpg","","mooney1","image-keyboard-response","135","444172","0.0-2.0-1.22","JW","1","pretest","true","3676266","null","../img/tt/1278tt.jpg","",""
"773","<p></p>","","recognized","html-keyboard-response","136","444946","0.0-2.0-2.22","JW","1","pretest","true","3676266","78","../img/tt/1278tt.jpg","n",""
"null","../img/gs/1278gs.jpg","","solution","image-keyboard-response","137","446963","0.0-2.0-3.22","JW","1","pretest","true","3676266","null","","",""
"null","../img/tt/1278tt.jpg","","mooney2","image-keyboard-response","138","448951","0.0-2.0-4.22","JW","1","pretest","true","3676266","null","","",""
"2317","<p>How strong was your <strong>aha-experience</strong>?</p>","","aha","html-keyboard-response","139","451270","0.0-2.0-5.22","JW","1","pretest","true","3676266","54","../img/tt/1278tt.jpg","","6"
"null","<div style=""font-size:60px;""> </div>","","fixation","html-keyboard-response","140","451473","0.0-2.0-0.23","JW","1","pretest","true","3676266","null","","",""
"null","../img/tt/063tt.jpg","","mooney1","image-keyboard-response","141","454491","0.0-2.0-1.23","JW","1","pretest","true","3676266","null","../img/tt/063tt.jpg","",""
"639","<p></p>","","recognized","html-keyboard-response","142","455131","0.0-2.0-2.23","JW","1","pretest","true","3676266","78","../img/tt/063tt.jpg","n",""
"null","../img/gs/063gs.jpg","","solution","image-keyboard-response","143","457150","0.0-2.0-3.23","JW","1","pretest","true","3676266","null","","",""
"null","../img/tt/063tt.jpg","","mooney2","image-keyboard-response","144","459137","0.0-2.0-4.23","JW","1","pretest","true","3676266","null","","",""
"503","<p>How strong was your <strong>aha-experience</strong>?</p>","","aha","html-keyboard-response","145","459642","0.0-2.0-5.23","JW","1","pretest","true","3676266","52","../img/tt/063tt.jpg","","4"
"null","<div style=""font-size:60px;""> </div>","","fixation","html-keyboard-response","146","459857","0.0-2.0-0.24","JW","1","pretest","true","3676266","null","","",""
"null","../img/tt/117tt.jpg","","mooney1","image-keyboard-response","147","462860","0.0-2.0-1.24","JW","1","pretest","true","3676266","null","../img/tt/117tt.jpg","",""
"486","<p></p>","","recognized","html-keyboard-response","148","463347","0.0-2.0-2.24","JW","1","pretest","true","3676266","89","../img/tt/117tt.jpg","y",""
"null","../img/gs/117gs.jpg","","solution","image-keyboard-response","149","465366","0.0-2.0-3.24","JW","1","pretest","true","3676266","null","","",""
"null","../img/tt/117tt.jpg","","mooney2","image-keyboard-response","150","467366","0.0-2.0-4.24","JW","1","pretest","true","3676266","null","","",""
"678","<p>How strong was your <strong>aha-experience</strong>?</p>","","aha","html-keyboard-response","151","468045","0.0-2.0-5.24","JW","1","pretest","true","3676266","50","../img/tt/117tt.jpg","","2"
"null","<div style=""font-size:60px;""> </div>","","fixation","html-keyboard-response","152","468250","0.0-2.0-0.25","JW","1","pretest","true","3676266","null","","",""
"null","../img/tt/085tt.jpg","","mooney1","image-keyboard-response","153","471255","0.0-2.0-1.25","JW","1","pretest","true","3676266","null","../img/tt/085tt.jpg","",""
"911","<p></p>","","recognized","html-keyboard-response","154","472168","0.0-2.0-2.25","JW","1","pretest","true","3676266","89","../img/tt/085tt.jpg","y",""
"null","../img/gs/085gs.jpg","","solution","image-keyboard-response","155","474185","0.0-2.0-3.25","JW","1","pretest","true","3676266","null","","",""
"null","../img/tt/085tt.jpg","","mooney2","image-keyboard-response","156","476173","0.0-2.0-4.25","JW","1","pretest","true","3676266","null","","",""
"285","<p>How strong was your <strong>aha-experience</strong>?</p>","","aha","html-keyboard-response","157","476459","0.0-2.0-5.25","JW","1","pretest","true","3676266","54","../img/tt/085tt.jpg","","6"
"null","<div style=""font-size:60px;""> </div>","","fixation","html-keyboard-response","158","476662","0.0-2.0-0.26","JW","1","pretest","true","3676266","null","","",""
"null","../img/tt/1235tt.jpg","","mooney1","image-keyboard-response","159","479668","0.0-2.0-1.26","JW","1","pretest","true","3676266","null","../img/tt/1235tt.jpg","",""
"818","<p></p>","","recognized","html-keyboard-response","160","480488","0.0-2.0-2.26","JW","1","pretest","true","3676266","89","../img/tt/1235tt.jpg","y",""
"null","../img/gs/1235gs.jpg","","solution","image-keyboard-response","161","482505","0.0-2.0-3.26","JW","1","pretest","true","3676266","null","","",""
"null","../img/tt/1235tt.jpg","","mooney2","image-keyboard-response","162","484494","0.0-2.0-4.26","JW","1","pretest","true","3676266","null","","",""
"1202","<p>How strong was your <strong>aha-experience</strong>?</p>","","aha","html-keyboard-response","163","485696","0.0-2.0-5.26","JW","1","pretest","true","3676266","54","../img/tt/1235tt.jpg","","6"
"null","<div style=""font-size:60px;""> </div>","","fixation","html-keyboard-response","164","485900","0.0-2.0-0.27","JW","1","pretest","true","3676266","null","","",""
"null","../img/tt/1257tt.jpg","","mooney1","image-keyboard-response","165","488917","0.0-2.0-1.27","JW","1","pretest","true","3676266","null","../img/tt/1257tt.jpg","",""
"626","<p></p>","","recognized","html-keyboard-response","166","489545","0.0-2.0-2.27","JW","1","pretest","true","3676266","89","../img/tt/1257tt.jpg","y",""
"null","../img/gs/1257gs.jpg","","solution","image-keyboard-response","167","491547","0.0-2.0-3.27","JW","1","pretest","true","3676266","null","","",""
"null","../img/tt/1257tt.jpg","","mooney2","image-keyboard-response","168","493551","0.0-2.0-4.27","JW","1","pretest","true","3676266","null","","",""
"1017","<p>How strong was your <strong>aha-experience</strong>?</p>","","aha","html-keyboard-response","169","494568","0.0-2.0-5.27","JW","1","pretest","true","3676266","52","../img/tt/1257tt.jpg","","4"
"null","<div style=""font-size:60px;""> </div>","","fixation","html-keyboard-response","170","494773","0.0-2.0-0.28","JW","1","pretest","true","3676266","null","","",""
"null","../img/tt/1081tt.jpg","","mooney1","image-keyboard-response","171","497778","0.0-2.0-1.28","JW","1","pretest","true","3676266","null","../img/tt/1081tt.jpg","",""
"610","<p></p>","","recognized","html-keyboard-response","172","498389","0.0-2.0-2.28","JW","1","pretest","true","3676266","89","../img/tt/1081tt.jpg","y",""
"null","../img/gs/1081gs.jpg","","solution","image-keyboard-response","173","500407","0.0-2.0-3.28","JW","1","pretest","true","3676266","null","","",""
"null","../img/tt/1081tt.jpg","","mooney2","image-keyboard-response","174","502408","0.0-2.0-4.28","JW","1","pretest","true","3676266","null","","",""
"700","<p>How strong was your <strong>aha-experience</strong>?</p>","","aha","html-keyboard-response","175","503109","0.0-2.0-5.28","JW","1","pretest","true","3676266","50","../img/tt/1081tt.jpg","","2"
"null","<div style=""font-size:60px;""> </div>","","fixation","html-keyboard-response","176","503312","0.0-2.0-0.29","JW","1","pretest","true","3676266","null","","",""
"null","../img/tt/1290tt.jpg","","mooney1","image-keyboard-response","177","506318","0.0-2.0-1.29","JW","1","pretest","true","3676266","null","../img/tt/1290tt.jpg","",""
"606","<p></p>","","recognized","html-keyboard-response","178","506926","0.0-2.0-2.29","JW","1","pretest","true","3676266","78","../img/tt/1290tt.jpg","n",""
"null","../img/gs/1290gs.jpg","","solution","image-keyboard-response","179","508942","0.0-2.0-3.29","JW","1","pretest","true","3676266","null","","",""
"null","../img/tt/1290tt.jpg","","mooney2","image-keyboard-response","180","510930","0.0-2.0-4.29","JW","1","pretest","true","3676266","null","","",""
"593","<p>How strong was your <strong>aha-experience</strong>?</p>","","aha","html-keyboard-response","181","511524","0.0-2.0-5.29","JW","1","pretest","true","3676266","53","../img/tt/1290tt.jpg","","5"
"null","<div style=""font-size:60px;""> </div>","","fixation","html-keyboard-response","182","511730","0.0-2.0-0.30","JW","1","pretest","true","3676266","null","","",""
"null","../img/tt/111tt.jpg","","mooney1","image-keyboard-response","183","514747","0.0-2.0-1.30","JW","1","pretest","true","3676266","null","../img/tt/111tt.jpg","",""
"558","<p></p>","","recognized","html-keyboard-response","184","515308","0.0-2.0-2.30","JW","1","pretest","true","3676266","78","../img/tt/111tt.jpg","n",""
"null","../img/gs/111gs.jpg","","solution","image-keyboard-response","185","517327","0.0-2.0-3.30","JW","1","pretest","true","3676266","null","","",""
"null","../img/tt/111tt.jpg","","mooney2","image-keyboard-response","186","519314","0.0-2.0-4.30","JW","1","pretest","true","3676266","null","","",""
"2173","<p>How strong was your <strong>aha-experience</strong>?</p>","","aha","html-keyboard-response","187","521488","0.0-2.0-5.30","JW","1","pretest","true","3676266","54","../img/tt/111tt.jpg","","6"
"null","<div style=""font-size:60px;""> </div>","","fixation","html-keyboard-response","188","521692","0.0-2.0-0.31","JW","1","pretest","true","3676266","null","","",""
"null","../img/tt/1007tt.jpg","","mooney1","image-keyboard-response","189","524699","0.0-2.0-1.31","JW","1","pretest","true","3676266","null","../img/tt/1007tt.jpg","",""
"723","<p></p>","","recognized","html-keyboard-response","190","525424","0.0-2.0-2.31","JW","1","pretest","true","3676266","89","../img/tt/1007tt.jpg","y",""
"null","../img/gs/1007gs.jpg","","solution","image-keyboard-response","191","527440","0.0-2.0-3.31","JW","1","pretest","true","3676266","null","","",""
"null","../img/tt/1007tt.jpg","","mooney2","image-keyboard-response","192","529429","0.0-2.0-4.31","JW","1","pretest","true","3676266","null","","",""
"1196","<p>How strong was your <strong>aha-experience</strong>?</p>","","aha","html-keyboard-response","193","530626","0.0-2.0-5.31","JW","1","pretest","true","3676266","51","../img/tt/1007tt.jpg","","3"
"null","<div style=""font-size:60px;""> </div>","","fixation","html-keyboard-response","194","530828","0.0-2.0-0.32","JW","1","pretest","true","3676266","null","","",""
"null","../img/tt/1103tt.jpg","","mooney1","image-keyboard-response","195","533834","0.0-2.0-1.32","JW","1","pretest","true","3676266","null","../img/tt/1103tt.jpg","",""
"569","<p></p>","","recognized","html-keyboard-response","196","534404","0.0-2.0-2.32","JW","1","pretest","true","3676266","89","../img/tt/1103tt.jpg","y",""
"null","../img/gs/1103gs.jpg","","solution","image-keyboard-response","197","536422","0.0-2.0-3.32","JW","1","pretest","true","3676266","null","","",""
"null","../img/tt/1103tt.jpg","","mooney2","image-keyboard-response","198","538411","0.0-2.0-4.32","JW","1","pretest","true","3676266","null","","",""
"214","<p>How strong was your <strong>aha-experience</strong>?</p>","","aha","html-keyboard-response","199","538626","0.0-2.0-5.32","JW","1","pretest","true","3676266","51","../img/tt/1103tt.jpg","","3"
"null","<div style=""font-size:60px;""> </div>","","fixation","html-keyboard-response","200","538831","0.0-2.0-0.33","JW","1","pretest","true","3676266","null","","",""
"null","../img/tt/057tt.jpg","","mooney1","image-keyboard-response","201","541833","0.0-2.0-1.33","JW","1","pretest","true","3676266","null","../img/tt/057tt.jpg","",""
"513","<p></p>","","recognized","html-keyboard-response","202","542347","0.0-2.0-2.33","JW","1","pretest","true","3676266","78","../img/tt/057tt.jpg","n",""
"null","../img/gs/057gs.jpg","","solution","image-keyboard-response","203","544365","0.0-2.0-3.33","JW","1","pretest","true","3676266","null","","",""
"null","../img/tt/057tt.jpg","","mooney2","image-keyboard-response","204","546354","0.0-2.0-4.33","JW","1","pretest","true","3676266","null","","",""
"1004","<p>How strong was your <strong>aha-experience</strong>?</p>","","aha","html-keyboard-response","205","547359","0.0-2.0-5.33","JW","1","pretest","true","3676266","53","../img/tt/057tt.jpg","","5"
"null","<div style=""font-size:60px;""> </div>","","fixation","html-keyboard-response","206","547564","0.0-2.0-0.34","JW","1","pretest","true","3676266","null","","",""
"null","../img/tt/1053tt.jpg","","mooney1","image-keyboard-response","207","550568","0.0-2.0-1.34","JW","1","pretest","true","3676266","null","../img/tt/1053tt.jpg","",""
"738","<p></p>","","recognized","html-keyboard-response","208","551307","0.0-2.0-2.34","JW","1","pretest","true","3676266","89","../img/tt/1053tt.jpg","y",""
"null","../img/gs/1053gs.jpg","","solution","image-keyboard-response","209","553309","0.0-2.0-3.34","JW","1","pretest","true","3676266","null","","",""
"null","../img/tt/1053tt.jpg","","mooney2","image-keyboard-response","210","555310","0.0-2.0-4.34","JW","1","pretest","true","3676266","null","","",""
"556","<p>How strong was your <strong>aha-experience</strong>?</p>","","aha","html-keyboard-response","211","555868","0.0-2.0-5.34","JW","1","pretest","true","3676266","51","../img/tt/1053tt.jpg","","3"
"null","<div style=""font-size:60px;""> </div>","","fixation","html-keyboard-response","212","556070","0.0-2.0-0.35","JW","1","pretest","true","3676266","null","","",""
"null","../img/tt/1002tt.jpg","","mooney1","image-keyboard-response","213","559072","0.0-2.0-1.35","JW","1","pretest","true","3676266","null","../img/tt/1002tt.jpg","",""
"461","<p></p>","","recognized","html-keyboard-response","214","559534","0.0-2.0-2.35","JW","1","pretest","true","3676266","78","../img/tt/1002tt.jpg","n",""
"null","../img/gs/1002gs.jpg","","solution","image-keyboard-response","215","561553","0.0-2.0-3.35","JW","1","pretest","true","3676266","null","","",""
"null","../img/tt/1002tt.jpg","","mooney2","image-keyboard-response","216","563539","0.0-2.0-4.35","JW","1","pretest","true","3676266","null","","",""
"941","<p>How strong was your <strong>aha-experience</strong>?</p>","","aha","html-keyboard-response","217","564481","0.0-2.0-5.35","JW","1","pretest","true","3676266","53","../img/tt/1002tt.jpg","","5"
"null","<div style=""font-size:60px;""> </div>","","fixation","html-keyboard-response","218","564687","0.0-2.0-0.36","JW","1","pretest","true","3676266","null","","",""
"null","../img/tt/1214tt.jpg","","mooney1","image-keyboard-response","219","567704","0.0-2.0-1.36","JW","1","pretest","true","3676266","null","../img/tt/1214tt.jpg","",""
"544","<p></p>","","recognized","html-keyboard-response","220","568249","0.0-2.0-2.36","JW","1","pretest","true","3676266","78","../img/tt/1214tt.jpg","n",""
"null","../img/gs/1214gs.jpg","","solution","image-keyboard-response","221","570267","0.0-2.0-3.36","JW","1","pretest","true","3676266","null","","",""
"null","../img/tt/1214tt.jpg","","mooney2","image-keyboard-response","222","572270","0.0-2.0-4.36","JW","1","pretest","true","3676266","null","","",""
"1777","<p>How strong was your <strong>aha-experience</strong>?</p>","","aha","html-keyboard-response","223","574047","0.0-2.0-5.36","JW","1","pretest","true","3676266","52","../img/tt/1214tt.jpg","","4"
"null","<div style=""font-size:60px;""> </div>","","fixation","html-keyboard-response","224","574250","0.0-2.0-0.37","JW","1","pretest","true","3676266","null","","",""
"null","../img/tt/080tt.jpg","","mooney1","image-keyboard-response","225","577254","0.0-2.0-1.37","JW","1","pretest","true","3676266","null","../img/tt/080tt.jpg","",""
"614","<p></p>","","recognized","html-keyboard-response","226","577869","0.0-2.0-2.37","JW","1","pretest","true","3676266","89","../img/tt/080tt.jpg","y",""
"null","../img/gs/080gs.jpg","","solution","image-keyboard-response","227","579886","0.0-2.0-3.37","JW","1","pretest","true","3676266","null","","",""
"null","../img/tt/080tt.jpg","","mooney2","image-keyboard-response","228","581888","0.0-2.0-4.37","JW","1","pretest","true","3676266","null","","",""
"939","<p>How strong was your <strong>aha-experience</strong>?</p>","","aha","html-keyboard-response","229","582828","0.0-2.0-5.37","JW","1","pretest","true","3676266","53","../img/tt/080tt.jpg","","5"
"null","<div style=""font-size:60px;""> </div>","","fixation","html-keyboard-response","230","583031","0.0-2.0-0.38","JW","1","pretest","true","3676266","null","","",""
"null","../img/tt/104tt.jpg","","mooney1","image-keyboard-response","231","586034","0.0-2.0-1.38","JW","1","pretest","true","3676266","null","../img/tt/104tt.jpg","",""
"549","<p></p>","","recognized","html-keyboard-response","232","586583","0.0-2.0-2.38","JW","1","pretest","true","3676266","89","../img/tt/104tt.jpg","y",""
"null","../img/gs/104gs.jpg","","solution","image-keyboard-response","233","588601","0.0-2.0-3.38","JW","1","pretest","true","3676266","null","","",""
"null","../img/tt/104tt.jpg","","mooney2","image-keyboard-response","234","590588","0.0-2.0-4.38","JW","1","pretest","true","3676266","null","","",""
"740","<p>How strong was your <strong>aha-experience</strong>?</p>","","aha","html-keyboard-response","235","591330","0.0-2.0-5.38","JW","1","pretest","true","3676266","53","../img/tt/104tt.jpg","","5"
"null","<div style=""font-size:60px;""> </div>","","fixation","html-keyboard-response","236","591546","0.0-2.0-0.39","JW","1","pretest","true","3676266","null","","",""
"null","../img/tt/1148tt.jpg","","mooney1","image-keyboard-response","237","594549","0.0-2.0-1.39","JW","1","pretest","true","3676266","null","../img/tt/1148tt.jpg","",""
"467","<p></p>","","recognized","html-keyboard-response","238","595018","0.0-2.0-2.39","JW","1","pretest","true","3676266","89","../img/tt/1148tt.jpg","y",""
"null","../img/gs/1148gs.jpg","","solution","image-keyboard-response","239","597033","0.0-2.0-3.39","JW","1","pretest","true","3676266","null","","",""
"null","../img/tt/1148tt.jpg","","mooney2","image-keyboard-response","240","599023","0.0-2.0-4.39","JW","1","pretest","true","3676266","null","","",""
"531","<p>How strong was your <strong>aha-experience</strong>?</p>","","aha","html-keyboard-response","241","599556","0.0-2.0-5.39","JW","1","pretest","true","3676266","53","../img/tt/1148tt.jpg","","5"
"null","<div style=""font-size:60px;""> </div>","","fixation","html-keyboard-response","242","599767","0.0-2.0-0.40","JW","1","pretest","true","3676266","null","","",""
"null","../img/tt/1170tt.jpg","","mooney1","image-keyboard-response","243","602770","0.0-2.0-1.40","JW","1","pretest","true","3676266","null","../img/tt/1170tt.jpg","",""
"536","<p></p>","","recognized","html-keyboard-response","244","603307","0.0-2.0-2.40","JW","1","pretest","true","3676266","89","../img/tt/1170tt.jpg","y",""
"null","../img/gs/1170gs.jpg","","solution","image-keyboard-response","245","605326","0.0-2.0-3.40","JW","1","pretest","true","3676266","null","","",""
"null","../img/tt/1170tt.jpg","","mooney2","image-keyboard-response","246","607314","0.0-2.0-4.40","JW","1","pretest","true","3676266","null","","",""
"833","<p>How strong was your <strong>aha-experience</strong>?</p>","","aha","html-keyboard-response","247","608148","0.0-2.0-5.40","JW","1","pretest","true","3676266","49","../img/tt/1170tt.jpg","","1"
"null","<div style=""font-size:60px;""> </div>","","fixation","html-keyboard-response","248","608352","0.0-2.0-0.41","JW","1","pretest","true","3676266","null","","",""
"null","../img/tt/1280tt.jpg","","mooney1","image-keyboard-response","249","611355","0.0-2.0-1.41","JW","1","pretest","true","3676266","null","../img/tt/1280tt.jpg","",""
"704","<p></p>","","recognized","html-keyboard-response","250","612060","0.0-2.0-2.41","JW","1","pretest","true","3676266","89","../img/tt/1280tt.jpg","y",""
"null","../img/gs/1280gs.jpg","","solution","image-keyboard-response","251","614079","0.0-2.0-3.41","JW","1","pretest","true","3676266","null","","",""
"null","../img/tt/1280tt.jpg","","mooney2","image-keyboard-response","252","616066","0.0-2.0-4.41","JW","1","pretest","true","3676266","null","","",""
"1133","<p>How strong was your <strong>aha-experience</strong>?</p>","","aha","html-keyboard-response","253","617200","0.0-2.0-5.41","JW","1","pretest","true","3676266","51","../img/tt/1280tt.jpg","","3"
"null","<div style=""font-size:60px;""> </div>","","fixation","html-keyboard-response","254","617403","0.0-2.0-0.42","JW","1","pretest","true","3676266","null","","",""
"null","../img/tt/1176tt.jpg","","mooney1","image-keyboard-response","255","620421","0.0-2.0-1.42","JW","1","pretest","true","3676266","null","../img/tt/1176tt.jpg","",""
"285","<p></p>","","recognized","html-keyboard-response","256","620707","0.0-2.0-2.42","JW","1","pretest","true","3676266","89","../img/tt/1176tt.jpg","y",""
"null","../img/gs/1176gs.jpg","","solution","image-keyboard-response","257","622710","0.0-2.0-3.42","JW","1","pretest","true","3676266","null","","",""
"null","../img/tt/1176tt.jpg","","mooney2","image-keyboard-response","258","624714","0.0-2.0-4.42","JW","1","pretest","true","3676266","null","","",""
"1715","<p>How strong was your <strong>aha-experience</strong>?</p>","","aha","html-keyboard-response","259","626429","0.0-2.0-5.42","JW","1","pretest","true","3676266","52","../img/tt/1176tt.jpg","","4"
"null","<div style=""font-size:60px;""> </div>","","fixation","html-keyboard-response","260","626633","0.0-2.0-0.43","JW","1","pretest","true","3676266","null","","",""
"null","../img/tt/1150tt.jpg","","mooney1","image-keyboard-response","261","629651","0.0-2.0-1.43","JW","1","pretest","true","3676266","null","../img/tt/1150tt.jpg","",""
"553","<p></p>","","recognized","html-keyboard-response","262","630206","0.0-2.0-2.43","JW","1","pretest","true","3676266","89","../img/tt/1150tt.jpg","y",""
"null","../img/gs/1150gs.jpg","","solution","image-keyboard-response","263","632224","0.0-2.0-3.43","JW","1","pretest","true","3676266","null","","",""
"null","../img/tt/1150tt.jpg","","mooney2","image-keyboard-response","264","634212","0.0-2.0-4.43","JW","1","pretest","true","3676266","null","","",""
"684","<p>How strong was your <strong>aha-experience</strong>?</p>","","aha","html-keyboard-response","265","634897","0.0-2.0-5.43","JW","1","pretest","true","3676266","50","../img/tt/1150tt.jpg","","2"
"null","<div style=""font-size:60px;""> </div>","","fixation","html-keyboard-response","266","635099","0.0-2.0-0.44","JW","1","pretest","true","3676266","null","","",""
"null","../img/tt/1261tt.jpg","","mooney1","image-keyboard-response","267","638102","0.0-2.0-1.44","JW","1","pretest","true","3676266","null","../img/tt/1261tt.jpg","",""
"781","<p></p>","","recognized","html-keyboard-response","268","638883","0.0-2.0-2.44","JW","1","pretest","true","3676266","78","../img/tt/1261tt.jpg","n",""
"null","../img/gs/1261gs.jpg","","solution","image-keyboard-response","269","640901","0.0-2.0-3.44","JW","1","pretest","true","3676266","null","","",""
"null","../img/tt/1261tt.jpg","","mooney2","image-keyboard-response","270","642892","0.0-2.0-4.44","JW","1","pretest","true","3676266","null","","",""
"1827","<p>How strong was your <strong>aha-experience</strong>?</p>","","aha","html-keyboard-response","271","644719","0.0-2.0-5.44","JW","1","pretest","true","3676266","52","../img/tt/1261tt.jpg","","4"
"null","<div style=""font-size:60px;""> </div>","","fixation","html-keyboard-response","272","644922","0.0-2.0-0.45","JW","1","pretest","true","3676266","null","","",""
"null","../img/tt/1016tt.jpg","","mooney1","image-keyboard-response","273","647927","0.0-2.0-1.45","JW","1","pretest","true","3676266","null","../img/tt/1016tt.jpg","",""
"700","<p></p>","","recognized","html-keyboard-response","274","648628","0.0-2.0-2.45","JW","1","pretest","true","3676266","89","../img/tt/1016tt.jpg","y",""
"null","../img/gs/1016gs.jpg","","solution","image-keyboard-response","275","650646","0.0-2.0-3.45","JW","1","pretest","true","3676266","null","","",""
"null","../img/tt/1016tt.jpg","","mooney2","image-keyboard-response","276","652637","0.0-2.0-4.45","JW","1","pretest","true","3676266","null","","",""
"506","<p>How strong was your <strong>aha-experience</strong>?</p>","","aha","html-keyboard-response","277","653144","0.0-2.0-5.45","JW","1","pretest","true","3676266","53","../img/tt/1016tt.jpg","","5"
"null","<div style=""font-size:60px;""> </div>","","fixation","html-keyboard-response","278","653349","0.0-2.0-0.46","JW","1","pretest","true","3676266","null","","",""
"null","../img/tt/097tt.jpg","","mooney1","image-keyboard-response","279","656364","0.0-2.0-1.46","JW","1","pretest","true","3676266","null","../img/tt/097tt.jpg","",""
"509","<p></p>","","recognized","html-keyboard-response","280","656874","0.0-2.0-2.46","JW","1","pretest","true","3676266","89","../img/tt/097tt.jpg","y",""
"null","../img/gs/097gs.jpg","","solution","image-keyboard-response","281","658877","0.0-2.0-3.46","JW","1","pretest","true","3676266","null","","",""
"null","../img/tt/097tt.jpg","","mooney2","image-keyboard-response","282","660880","0.0-2.0-4.46","JW","1","pretest","true","3676266","null","","",""
"628","<p>How strong was your <strong>aha-experience</strong>?</p>","","aha","html-keyboard-response","283","661509","0.0-2.0-5.46","JW","1","pretest","true","3676266","54","../img/tt/097tt.jpg","","6"
"null","<div style=""font-size:60px;""> </div>","","fixation","html-keyboard-response","284","661715","0.0-2.0-0.47","JW","1","pretest","true","3676266","null","","",""
"null","../img/tt/1131tt.jpg","","mooney1","image-keyboard-response","285","664722","0.0-2.0-1.47","JW","1","pretest","true","3676266","null","../img/tt/1131tt.jpg","",""
"1288","<p></p>","","recognized","html-keyboard-response","286","666011","0.0-2.0-2.47","JW","1","pretest","true","3676266","78","../img/tt/1131tt.jpg","n",""
"null","../img/gs/1131gs.jpg","","solution","image-keyboard-response","287","668030","0.0-2.0-3.47","JW","1","pretest","true","3676266","null","","",""
"null","../img/tt/1131tt.jpg","","mooney2","image-keyboard-response","288","670032","0.0-2.0-4.47","JW","1","pretest","true","3676266","null","","",""
"1285","<p>How strong was your <strong>aha-experience</strong>?</p>","","aha","html-keyboard-response","289","671318","0.0-2.0-5.47","JW","1","pretest","true","3676266","52","../img/tt/1131tt.jpg","","4"
"null","<div style=""font-size:60px;""> </div>","","fixation","html-keyboard-response","290","671523","0.0-2.0-0.48","JW","1","pretest","true","3676266","null","","",""
"null","../img/tt/1230tt.jpg","","mooney1","image-keyboard-response","291","674526","0.0-2.0-1.48","JW","1","pretest","true","3676266","null","../img/tt/1230tt.jpg","",""
"470","<p></p>","","recognized","html-keyboard-response","292","674998","0.0-2.0-2.48","JW","1","pretest","true","3676266","89","../img/tt/1230tt.jpg","y",""
"null","../img/gs/1230gs.jpg","","solution","image-keyboard-response","293","677015","0.0-2.0-3.48","JW","1","pretest","true","3676266","null","","",""
"null","../img/tt/1230tt.jpg","","mooney2","image-keyboard-response","294","679005","0.0-2.0-4.48","JW","1","pretest","true","3676266","null","","",""
"1930","<p>How strong was your <strong>aha-experience</strong>?</p>","","aha","html-keyboard-response","295","680937","0.0-2.0-5.48","JW","1","pretest","true","3676266","52","../img/tt/1230tt.jpg","","4"
"null","<div style=""font-size:60px;""> </div>","","fixation","html-keyboard-response","296","681139","0.0-2.0-0.49","JW","1","pretest","true","3676266","null","","",""
"null","../img/tt/1156tt.jpg","","mooney1","image-keyboard-response","297","684141","0.0-2.0-1.49","JW","1","pretest","true","3676266","null","../img/tt/1156tt.jpg","",""
"1615","<p></p>","","recognized","html-keyboard-response","298","685757","0.0-2.0-2.49","JW","1","pretest","true","3676266","78","../img/tt/1156tt.jpg","n",""
"null","../img/gs/1156gs.jpg","","solution","image-keyboard-response","299","687774","0.0-2.0-3.49","JW","1","pretest","true","3676266","null","","",""
"null","../img/tt/1156tt.jpg","","mooney2","image-keyboard-response","300","689773","0.0-2.0-4.49","JW","1","pretest","true","3676266","null","","",""
"683","<p>How strong was your <strong>aha-experience</strong>?</p>","","aha","html-keyboard-response","301","690458","0.0-2.0-5.49","JW","1","pretest","true","3676266","53","../img/tt/1156tt.jpg","","5"
"null","<div style=""font-size:60px;""> </div>","","fixation","html-keyboard-response","302","690663","0.0-2.0-0.50","JW","1","pretest","true","3676266","null","","",""
"null","../img/tt/1061tt.jpg","","mooney1","image-keyboard-response","303","693666","0.0-2.0-1.50","JW","1","pretest","true","3676266","null","../img/tt/1061tt.jpg","",""
"771","<p></p>","","recognized","html-keyboard-response","304","694439","0.0-2.0-2.50","JW","1","pretest","true","3676266","89","../img/tt/1061tt.jpg","y",""
"null","../img/gs/1061gs.jpg","","solution","image-keyboard-response","305","696457","0.0-2.0-3.50","JW","1","pretest","true","3676266","null","","",""
"null","../img/tt/1061tt.jpg","","mooney2","image-keyboard-response","306","698458","0.0-2.0-4.50","JW","1","pretest","true","3676266","null","","",""
"673","<p>How strong was your <strong>aha-experience</strong>?</p>","","aha","html-keyboard-response","307","699132","0.0-2.0-5.50","JW","1","pretest","true","3676266","53","../img/tt/1061tt.jpg","","5"
"null","<div style=""font-size:60px;""> </div>","","fixation","html-keyboard-response","308","699335","0.0-2.0-0.51","JW","1","pretest","true","3676266","null","","",""
"null","../img/tt/1041tt.jpg","","mooney1","image-keyboard-response","309","702337","0.0-2.0-1.51","JW","1","pretest","true","3676266","null","../img/tt/1041tt.jpg","",""
"536","<p></p>","","recognized","html-keyboard-response","310","702874","0.0-2.0-2.51","JW","1","pretest","true","3676266","89","../img/tt/1041tt.jpg","y",""
"null","../img/gs/1041gs.jpg","","solution","image-keyboard-response","311","704892","0.0-2.0-3.51","JW","1","pretest","true","3676266","null","","",""
"null","../img/tt/1041tt.jpg","","mooney2","image-keyboard-response","312","706894","0.0-2.0-4.51","JW","1","pretest","true","3676266","null","","",""
"1391","<p>How strong was your <strong>aha-experience</strong>?</p>","","aha","html-keyboard-response","313","708285","0.0-2.0-5.51","JW","1","pretest","true","3676266","50","../img/tt/1041tt.jpg","","2"
"null","<div style=""font-size:60px;""> </div>","","fixation","html-keyboard-response","314","708489","0.0-2.0-0.52","JW","1","pretest","true","3676266","null","","",""
"null","../img/tt/1207tt.jpg","","mooney1","image-keyboard-response","315","711508","0.0-2.0-1.52","JW","1","pretest","true","3676266","null","../img/tt/1207tt.jpg","",""
"582","<p></p>","","recognized","html-keyboard-response","316","712091","0.0-2.0-2.52","JW","1","pretest","true","3676266","89","../img/tt/1207tt.jpg","y",""
"null","../img/gs/1207gs.jpg","","solution","image-keyboard-response","317","714108","0.0-2.0-3.52","JW","1","pretest","true","3676266","null","","",""
"null","../img/tt/1207tt.jpg","","mooney2","image-keyboard-response","318","716111","0.0-2.0-4.52","JW","1","pretest","true","3676266","null","","",""
"4091","<p>How strong was your <strong>aha-experience</strong>?</p>","","aha","html-keyboard-response","319","720204","0.0-2.0-5.52","JW","1","pretest","true","3676266","51","../img/tt/1207tt.jpg","","3"
"null","<div style=""font-size:60px;""> </div>","","fixation","html-keyboard-response","320","720407","0.0-2.0-0.53","JW","1","pretest","true","3676266","null","","",""
"null","../img/tt/1291tt.jpg","","mooney1","image-keyboard-response","321","723411","0.0-2.0-1.53","JW","1","pretest","true","3676266","null","../img/tt/1291tt.jpg","",""
"924","<p></p>","","recognized","html-keyboard-response","322","724338","0.0-2.0-2.53","JW","1","pretest","true","3676266","89","../img/tt/1291tt.jpg","y",""
"null","../img/gs/1291gs.jpg","","solution","image-keyboard-response","323","726355","0.0-2.0-3.53","JW","1","pretest","true","3676266","null","","",""
"null","../img/tt/1291tt.jpg","","mooney2","image-keyboard-response","324","728344","0.0-2.0-4.53","JW","1","pretest","true","3676266","null","","",""
"1329","<p>How strong was your <strong>aha-experience</strong>?</p>","","aha","html-keyboard-response","325","729675","0.0-2.0-5.53","JW","1","pretest","true","3676266","50","../img/tt/1291tt.jpg","","2"
"null","<div style=""font-size:60px;""> </div>","","fixation","html-keyboard-response","326","729878","0.0-2.0-0.54","JW","1","pretest","true","3676266","null","","",""
"null","../img/tt/1029tt.jpg","","mooney1","image-keyboard-response","327","732884","0.0-2.0-1.54","JW","1","pretest","true","3676266","null","../img/tt/1029tt.jpg","",""
"621","<p></p>","","recognized","html-keyboard-response","328","733506","0.0-2.0-2.54","JW","1","pretest","true","3676266","89","../img/tt/1029tt.jpg","y",""
"null","../img/gs/1029gs.jpg","","solution","image-keyboard-response","329","735524","0.0-2.0-3.54","JW","1","pretest","true","3676266","null","","",""
"null","../img/tt/1029tt.jpg","","mooney2","image-keyboard-response","330","737525","0.0-2.0-4.54","JW","1","pretest","true","3676266","null","","",""
"1330","<p>How strong was your <strong>aha-experience</strong>?</p>","","aha","html-keyboard-response","331","738857","0.0-2.0-5.54","JW","1","pretest","true","3676266","49","../img/tt/1029tt.jpg","","1"
"null","<div style=""font-size:60px;""> </div>","","fixation","html-keyboard-response","332","739061","0.0-2.0-0.55","JW","1","pretest","true","3676266","null","","",""
"null","../img/tt/123tt.jpg","","mooney1","image-keyboard-response","333","742064","0.0-2.0-1.55","JW","1","pretest","true","3676266","null","../img/tt/123tt.jpg","",""
"538","<p></p>","","recognized","html-keyboard-response","334","742604","0.0-2.0-2.55","JW","1","pretest","true","3676266","78","../img/tt/123tt.jpg","n",""
"null","../img/gs/123gs.jpg","","solution","image-keyboard-response","335","744609","0.0-2.0-3.55","JW","1","pretest","true","3676266","null","","",""
"null","../img/tt/123tt.jpg","","mooney2","image-keyboard-response","336","746611","0.0-2.0-4.55","JW","1","pretest","true","3676266","null","","",""
"740","<p>How strong was your <strong>aha-experience</strong>?</p>","","aha","html-keyboard-response","337","747353","0.0-2.0-5.55","JW","1","pretest","true","3676266","52","../img/tt/123tt.jpg","","4"
"null","<div style=""font-size:60px;""> </div>","","fixation","html-keyboard-response","338","747557","0.0-2.0-0.56","JW","1","pretest","true","3676266","null","","",""
"null","../img/tt/124tt.jpg","","mooney1","image-keyboard-response","339","750563","0.0-2.0-1.56","JW","1","pretest","true","3676266","null","../img/tt/124tt.jpg","",""
"633","<p></p>","","recognized","html-keyboard-response","340","751196","0.0-2.0-2.56","JW","1","pretest","true","3676266","89","../img/tt/124tt.jpg","y",""
"null","../img/gs/124gs.jpg","","solution","image-keyboard-response","341","753213","0.0-2.0-3.56","JW","1","pretest","true","3676266","null","","",""
"null","../img/tt/124tt.jpg","","mooney2","image-keyboard-response","342","755216","0.0-2.0-4.56","JW","1","pretest","true","3676266","null","","",""
"560","<p>How strong was your <strong>aha-experience</strong>?</p>","","aha","html-keyboard-response","343","755778","0.0-2.0-5.56","JW","1","pretest","true","3676266","53","../img/tt/124tt.jpg","","5"
"null","<div style=""font-size:60px;""> </div>","","fixation","html-keyboard-response","344","755981","0.0-2.0-0.57","JW","1","pretest","true","3676266","null","","",""
"null","../img/tt/014tt.jpg","","mooney1","image-keyboard-response","345","758985","0.0-2.0-1.57","JW","1","pretest","true","3676266","null","../img/tt/014tt.jpg","",""
"576","<p></p>","","recognized","html-keyboard-response","346","759564","0.0-2.0-2.57","JW","1","pretest","true","3676266","78","../img/tt/014tt.jpg","n",""
"null","../img/gs/014gs.jpg","","solution","image-keyboard-response","347","761566","0.0-2.0-3.57","JW","1","pretest","true","3676266","null","","",""
"null","../img/tt/014tt.jpg","","mooney2","image-keyboard-response","348","763569","0.0-2.0-4.57","JW","1","pretest","true","3676266","null","","",""
"973","<p>How strong was your <strong>aha-experience</strong>?</p>","","aha","html-keyboard-response","349","764544","0.0-2.0-5.57","JW","1","pretest","true","3676266","52","../img/tt/014tt.jpg","","4"
"null","<div style=""font-size:60px;""> </div>","","fixation","html-keyboard-response","350","764746","0.0-2.0-0.58","JW","1","pretest","true","3676266","null","","",""
"null","../img/tt/1264tt.jpg","","mooney1","image-keyboard-response","351","767763","0.0-2.0-1.58","JW","1","pretest","true","3676266","null","../img/tt/1264tt.jpg","",""
"542","<p></p>","","recognized","html-keyboard-response","352","768308","0.0-2.0-2.58","JW","1","pretest","true","3676266","89","../img/tt/1264tt.jpg","y",""
"null","../img/gs/1264gs.jpg","","solution","image-keyboard-response","353","770314","0.0-2.0-3.58","JW","1","pretest","true","3676266","null","","",""
"null","../img/tt/1264tt.jpg","","mooney2","image-keyboard-response","354","772318","0.0-2.0-4.58","JW","1","pretest","true","3676266","null","","",""
"2515","<p>How strong was your <strong>aha-experience</strong>?</p>","","aha","html-keyboard-response","355","774836","0.0-2.0-5.58","JW","1","pretest","true","3676266","53","../img/tt/1264tt.jpg","","5"
"null","<div style=""font-size:60px;""> </div>","","fixation","html-keyboard-response","356","775043","0.0-2.0-0.59","JW","1","pretest","true","3676266","null","","",""
"null","../img/tt/1256tt.jpg","","mooney1","image-keyboard-response","357","778060","0.0-2.0-1.59","JW","1","pretest","true","3676266","null","../img/tt/1256tt.jpg","",""
"632","<p></p>","","recognized","html-keyboard-response","358","778692","0.0-2.0-2.59","JW","1","pretest","true","3676266","89","../img/tt/1256tt.jpg","y",""
"null","../img/gs/1256gs.jpg","","solution","image-keyboard-response","359","780707","0.0-2.0-3.59","JW","1","pretest","true","3676266","null","","",""
"null","../img/tt/1256tt.jpg","","mooney2","image-keyboard-response","360","782709","0.0-2.0-4.59","JW","1","pretest","true","3676266","null","","",""
"584","<p>How strong was your <strong>aha-experience</strong>?</p>","","aha","html-keyboard-response","361","783294","0.0-2.0-5.59","JW","1","pretest","true","3676266","50","../img/tt/1256tt.jpg","","2"
"null","<div style=""font-size:60px;""> </div>","","fixation","html-keyboard-response","362","783499","0.0-2.0-0.60","JW","1","pretest","true","3676266","null","","",""
"null","../img/tt/1252tt.jpg","","mooney1","image-keyboard-response","363","786503","0.0-2.0-1.60","JW","1","pretest","true","3676266","null","../img/tt/1252tt.jpg","",""
"557","<p></p>","","recognized","html-keyboard-response","364","787062","0.0-2.0-2.60","JW","1","pretest","true","3676266","89","../img/tt/1252tt.jpg","y",""
"null","../img/gs/1252gs.jpg","","solution","image-keyboard-response","365","789079","0.0-2.0-3.60","JW","1","pretest","true","3676266","null","","",""
"null","../img/tt/1252tt.jpg","","mooney2","image-keyboard-response","366","791081","0.0-2.0-4.60","JW","1","pretest","true","3676266","null","","",""
"647","<p>How strong was your <strong>aha-experience</strong>?</p>","","aha","html-keyboard-response","367","791729","0.0-2.0-5.60","JW","1","pretest","true","3676266","51","../img/tt/1252tt.jpg","","3"
"null","<div style=""font-size:60px;""> </div>","","fixation","html-keyboard-response","368","791935","0.0-2.0-0.61","JW","1","pretest","true","3676266","null","","",""
"null","../img/tt/1066tt.jpg","","mooney1","image-keyboard-response","369","794940","0.0-2.0-1.61","JW","1","pretest","true","3676266","null","../img/tt/1066tt.jpg","",""
"1100","<p></p>","","recognized","html-keyboard-response","370","796042","0.0-2.0-2.61","JW","1","pretest","true","3676266","89","../img/tt/1066tt.jpg","y",""
"null","../img/gs/1066gs.jpg","","solution","image-keyboard-response","371","798057","0.0-2.0-3.61","JW","1","pretest","true","3676266","null","","",""
"null","../img/tt/1066tt.jpg","","mooney2","image-keyboard-response","372","800060","0.0-2.0-4.61","JW","1","pretest","true","3676266","null","","",""
"657","<p>How strong was your <strong>aha-experience</strong>?</p>","","aha","html-keyboard-response","373","800718","0.0-2.0-5.61","JW","1","pretest","true","3676266","52","../img/tt/1066tt.jpg","","4"
"null","<div style=""font-size:60px;""> </div>","","fixation","html-keyboard-response","374","800924","0.0-2.0-0.62","JW","1","pretest","true","3676266","null","","",""
"null","../img/tt/1088tt.jpg","","mooney1","image-keyboard-response","375","803941","0.0-2.0-1.62","JW","1","pretest","true","3676266","null","../img/tt/1088tt.jpg","",""
"842","<p></p>","","recognized","html-keyboard-response","376","804785","0.0-2.0-2.62","JW","1","pretest","true","3676266","89","../img/tt/1088tt.jpg","y",""
"null","../img/gs/1088gs.jpg","","solution","image-keyboard-response","377","806802","0.0-2.0-3.62","JW","1","pretest","true","3676266","null","","",""
"null","../img/tt/1088tt.jpg","","mooney2","image-keyboard-response","378","808790","0.0-2.0-4.62","JW","1","pretest","true","3676266","null","","",""
"2215","<p>How strong was your <strong>aha-experience</strong>?</p>","","aha","html-keyboard-response","379","811008","0.0-2.0-5.62","JW","1","pretest","true","3676266","52","../img/tt/1088tt.jpg","","4"
"null","<div style=""font-size:60px;""> </div>","","fixation","html-keyboard-response","380","811211","0.0-2.0-0.63","JW","1","pretest","true","3676266","null","","",""
"null","../img/tt/1076tt.jpg","","mooney1","image-keyboard-response","381","814215","0.0-2.0-1.63","JW","1","pretest","true","3676266","null","../img/tt/1076tt.jpg","",""
"563","<p></p>","","recognized","html-keyboard-response","382","814781","0.0-2.0-2.63","JW","1","pretest","true","3676266","89","../img/tt/1076tt.jpg","y",""
"null","../img/gs/1076gs.jpg","","solution","image-keyboard-response","383","816798","0.0-2.0-3.63","JW","1","pretest","true","3676266","null","","",""
"null","../img/tt/1076tt.jpg","","mooney2","image-keyboard-response","384","818799","0.0-2.0-4.63","JW","1","pretest","true","3676266","null","","",""
"605","<p>How strong was your <strong>aha-experience</strong>?</p>","","aha","html-keyboard-response","385","819405","0.0-2.0-5.63","JW","1","pretest","true","3676266","50","../img/tt/1076tt.jpg","","2"
"null","<div style=""font-size:60px;""> </div>","","fixation","html-keyboard-response","386","819609","0.0-2.0-0.64","JW","1","pretest","true","3676266","null","","",""
"null","../img/tt/1208tt.jpg","","mooney1","image-keyboard-response","387","822612","0.0-2.0-1.64","JW","1","pretest","true","3676266","null","../img/tt/1208tt.jpg","",""
"793","<p></p>","","recognized","html-keyboard-response","388","823406","0.0-2.0-2.64","JW","1","pretest","true","3676266","89","../img/tt/1208tt.jpg","y",""
"null","../img/gs/1208gs.jpg","","solution","image-keyboard-response","389","825425","0.0-2.0-3.64","JW","1","pretest","true","3676266","null","","",""
"null","../img/tt/1208tt.jpg","","mooney2","image-keyboard-response","390","827411","0.0-2.0-4.64","JW","1","pretest","true","3676266","null","","",""
"2608","<p>How strong was your <strong>aha-experience</strong>?</p>","","aha","html-keyboard-response","391","830020","0.0-2.0-5.64","JW","1","pretest","true","3676266","50","../img/tt/1208tt.jpg","","2"
"null","<div style=""font-size:60px;""> </div>","","fixation","html-keyboard-response","392","830237","0.0-2.0-0.65","JW","1","pretest","true","3676266","null","","",""
"null","../img/tt/1224tt.jpg","","mooney1","image-keyboard-response","393","833241","0.0-2.0-1.65","JW","1","pretest","true","3676266","null","../img/tt/1224tt.jpg","",""
"712","<p></p>","","recognized","html-keyboard-response","394","833955","0.0-2.0-2.65","JW","1","pretest","true","3676266","89","../img/tt/1224tt.jpg","y",""
"null","../img/gs/1224gs.jpg","","solution","image-keyboard-response","395","835971","0.0-2.0-3.65","JW","1","pretest","true","3676266","null","","",""
"null","../img/tt/1224tt.jpg","","mooney2","image-keyboard-response","396","837973","0.0-2.0-4.65","JW","1","pretest","true","3676266","null","","",""
"642","<p>How strong was your <strong>aha-experience</strong>?</p>","","aha","html-keyboard-response","397","838617","0.0-2.0-5.65","JW","1","pretest","true","3676266","51","../img/tt/1224tt.jpg","","3"
"null","<div style=""font-size:60px;""> </div>","","fixation","html-keyboard-response","398","838823","0.0-2.0-0.66","JW","1","pretest","true","3676266","null","","",""
"null","../img/tt/056tt.jpg","","mooney1","image-keyboard-response","399","841827","0.0-2.0-1.66","JW","1","pretest","true","3676266","null","../img/tt/056tt.jpg","",""
"559","<p></p>","","recognized","html-keyboard-response","400","842389","0.0-2.0-2.66","JW","1","pretest","true","3676266","78","../img/tt/056tt.jpg","n",""
"null","../img/gs/056gs.jpg","","solution","image-keyboard-response","401","844408","0.0-2.0-3.66","JW","1","pretest","true","3676266","null","","",""
"null","../img/tt/056tt.jpg","","mooney2","image-keyboard-response","402","846408","0.0-2.0-4.66","JW","1","pretest","true","3676266","null","","",""
"2182","<p>How strong was your <strong>aha-experience</strong>?</p>","","aha","html-keyboard-response","403","848591","0.0-2.0-5.66","JW","1","pretest","true","3676266","53","../img/tt/056tt.jpg","","5"
"null","<div style=""font-size:60px;""> </div>","","fixation","html-keyboard-response","404","848794","0.0-2.0-0.67","JW","1","pretest","true","3676266","null","","",""
"null","../img/tt/1160tt.jpg","","mooney1","image-keyboard-response","405","851798","0.0-2.0-1.67","JW","1","pretest","true","3676266","null","../img/tt/1160tt.jpg","",""
"642","<p></p>","","recognized","html-keyboard-response","406","852443","0.0-2.0-2.67","JW","1","pretest","true","3676266","89","../img/tt/1160tt.jpg","y",""
"null","../img/gs/1160gs.jpg","","solution","image-keyboard-response","407","854461","0.0-2.0-3.67","JW","1","pretest","true","3676266","null","","",""
"null","../img/tt/1160tt.jpg","","mooney2","image-keyboard-response","408","856450","0.0-2.0-4.67","JW","1","pretest","true","3676266","null","","",""
"1668","<p>How strong was your <strong>aha-experience</strong>?</p>","","aha","html-keyboard-response","409","858120","0.0-2.0-5.67","JW","1","pretest","true","3676266","49","../img/tt/1160tt.jpg","","1"
"null","<div style=""font-size:60px;""> </div>","","fixation","html-keyboard-response","410","858336","0.0-2.0-0.68","JW","1","pretest","true","3676266","null","","",""
"null","../img/tt/1279tt.jpg","","mooney1","image-keyboard-response","411","861343","0.0-2.0-1.68","JW","1","pretest","true","3676266","null","../img/tt/1279tt.jpg","",""
"669","<p></p>","","recognized","html-keyboard-response","412","862014","0.0-2.0-2.68","JW","1","pretest","true","3676266","78","../img/tt/1279tt.jpg","n",""
"null","../img/gs/1279gs.jpg","","solution","image-keyboard-response","413","864033","0.0-2.0-3.68","JW","1","pretest","true","3676266","null","","",""
"null","../img/tt/1279tt.jpg","","mooney2","image-keyboard-response","414","866022","0.0-2.0-4.68","JW","1","pretest","true","3676266","null","","",""
"2832","<p>How strong was your <strong>aha-experience</strong>?</p>","","aha","html-keyboard-response","415","868855","0.0-2.0-5.68","JW","1","pretest","true","3676266","53","../img/tt/1279tt.jpg","","5"
"null","<div style=""font-size:60px;""> </div>","","fixation","html-keyboard-response","416","869060","0.0-2.0-0.69","JW","1","pretest","true","3676266","null","","",""
"null","../img/tt/1161tt.jpg","","mooney1","image-keyboard-response","417","872077","0.0-2.0-1.69","JW","1","pretest","true","3676266","null","../img/tt/1161tt.jpg","",""
"775","<p></p>","","recognized","html-keyboard-response","418","872855","0.0-2.0-2.69","JW","1","pretest","true","3676266","78","../img/tt/1161tt.jpg","n",""
"null","../img/gs/1161gs.jpg","","solution","image-keyboard-response","419","874874","0.0-2.0-3.69","JW","1","pretest","true","3676266","null","","",""
"null","../img/tt/1161tt.jpg","","mooney2","image-keyboard-response","420","876861","0.0-2.0-4.69","JW","1","pretest","true","3676266","null","","",""
"581","<p>How strong was your <strong>aha-experience</strong>?</p>","","aha","html-keyboard-response","421","877442","0.0-2.0-5.69","JW","1","pretest","true","3676266","54","../img/tt/1161tt.jpg","","6"
"null","<div style=""font-size:60px;""> </div>","","fixation","html-keyboard-response","422","877647","0.0-2.0-0.70","JW","1","pretest","true","3676266","null","","",""
"null","../img/tt/1034tt.jpg","","mooney1","image-keyboard-response","423","880649","0.0-2.0-1.70","JW","1","pretest","true","3676266","null","../img/tt/1034tt.jpg","",""
"570","<p></p>","","recognized","html-keyboard-response","424","881221","0.0-2.0-2.70","JW","1","pretest","true","3676266","89","../img/tt/1034tt.jpg","y",""
"null","../img/gs/1034gs.jpg","","solution","image-keyboard-response","425","883224","0.0-2.0-3.70","JW","1","pretest","true","3676266","null","","",""
"null","../img/tt/1034tt.jpg","","mooney2","image-keyboard-response","426","885226","0.0-2.0-4.70","JW","1","pretest","true","3676266","null","","",""
"609","<p>How strong was your <strong>aha-experience</strong>?</p>","","aha","html-keyboard-response","427","885838","0.0-2.0-5.70","JW","1","pretest","true","3676266","49","../img/tt/1034tt.jpg","","1"
"null","<div style=""font-size:60px;""> </div>","","fixation","html-keyboard-response","428","886040","0.0-2.0-0.71","JW","1","pretest","true","3676266","null","","",""
"null","../img/tt/1139tt.jpg","","mooney1","image-keyboard-response","429","889058","0.0-2.0-1.71","JW","1","pretest","true","3676266","null","../img/tt/1139tt.jpg","",""
"866","<p></p>","","recognized","html-keyboard-response","430","889925","0.0-2.0-2.71","JW","1","pretest","true","3676266","78","../img/tt/1139tt.jpg","n",""
"null","../img/gs/1139gs.jpg","","solution","image-keyboard-response","431","891943","0.0-2.0-3.71","JW","1","pretest","true","3676266","null","","",""
"null","../img/tt/1139tt.jpg","","mooney2","image-keyboard-response","432","893931","0.0-2.0-4.71","JW","1","pretest","true","3676266","null","","",""
"645","<p>How strong was your <strong>aha-experience</strong>?</p>","","aha","html-keyboard-response","433","894579","0.0-2.0-5.71","JW","1","pretest","true","3676266","53","../img/tt/1139tt.jpg","","5"
"null","<div style=""font-size:60px;""> </div>","","fixation","html-keyboard-response","434","894783","0.0-2.0-0.72","JW","1","pretest","true","3676266","null","","",""
"null","../img/tt/1191tt.jpg","","mooney1","image-keyboard-response","435","897788","0.0-2.0-1.72","JW","1","pretest","true","3676266","null","../img/tt/1191tt.jpg","",""
"1390","<p></p>","","recognized","html-keyboard-response","436","899180","0.0-2.0-2.72","JW","1","pretest","true","3676266","89","../img/tt/1191tt.jpg","y",""
"null","../img/gs/1191gs.jpg","","solution","image-keyboard-response","437","901183","0.0-2.0-3.72","JW","1","pretest","true","3676266","null","","",""
"null","../img/tt/1191tt.jpg","","mooney2","image-keyboard-response","438","903189","0.0-2.0-4.72","JW","1","pretest","true","3676266","null","","",""
"572","<p>How strong was your <strong>aha-experience</strong>?</p>","","aha","html-keyboard-response","439","903763","0.0-2.0-5.72","JW","1","pretest","true","3676266","53","../img/tt/1191tt.jpg","","5"
"null","<div style=""font-size:60px;""> </div>","","fixation","html-keyboard-response","440","903968","0.0-2.0-0.73","JW","1","pretest","true","3676266","null","","",""
"null","../img/tt/1013tt.jpg","","mooney1","image-keyboard-response","441","906973","0.0-2.0-1.73","JW","1","pretest","true","3676266","null","../img/tt/1013tt.jpg","",""
"649","<p></p>","","recognized","html-keyboard-response","442","907624","0.0-2.0-2.73","JW","1","pretest","true","3676266","89","../img/tt/1013tt.jpg","y",""
"null","../img/gs/1013gs.jpg","","solution","image-keyboard-response","443","909643","0.0-2.0-3.73","JW","1","pretest","true","3676266","null","","",""
"null","../img/tt/1013tt.jpg","","mooney2","image-keyboard-response","444","911646","0.0-2.0-4.73","JW","1","pretest","true","3676266","null","","",""
"986","<p>How strong was your <strong>aha-experience</strong>?</p>","","aha","html-keyboard-response","445","912635","0.0-2.0-5.73","JW","1","pretest","true","3676266","52","../img/tt/1013tt.jpg","","4"
"null","<div style=""font-size:60px;""> </div>","","fixation","html-keyboard-response","446","912851","0.0-2.0-0.74","JW","1","pretest","true","3676266","null","","",""
"null","../img/tt/1058tt.jpg","","mooney1","image-keyboard-response","447","915869","0.0-2.0-1.74","JW","1","pretest","true","3676266","null","../img/tt/1058tt.jpg","",""
"534","<p></p>","","recognized","html-keyboard-response","448","916403","0.0-2.0-2.74","JW","1","pretest","true","3676266","89","../img/tt/1058tt.jpg","y",""
"null","../img/gs/1058gs.jpg","","solution","image-keyboard-response","449","918405","0.0-2.0-3.74","JW","1","pretest","true","3676266","null","","",""
"null","../img/tt/1058tt.jpg","","mooney2","image-keyboard-response","450","920407","0.0-2.0-4.74","JW","1","pretest","true","3676266","null","","",""
"2816","<p>How strong was your <strong>aha-experience</strong>?</p>","","aha","html-keyboard-response","451","923224","0.0-2.0-5.74","JW","1","pretest","true","3676266","49","../img/tt/1058tt.jpg","","1"
"null","<div style=""font-size:60px;""> </div>","","fixation","html-keyboard-response","452","923428","0.0-2.0-0.75","JW","1","pretest","true","3676266","null","","",""
"null","../img/tt/1269tt.jpg","","mooney1","image-keyboard-response","453","926434","0.0-2.0-1.75","JW","1","pretest","true","3676266","null","../img/tt/1269tt.jpg","",""
"568","<p></p>","","recognized","html-keyboard-response","454","927004","0.0-2.0-2.75","JW","1","pretest","true","3676266","89","../img/tt/1269tt.jpg","y",""
"null","../img/gs/1269gs.jpg","","solution","image-keyboard-response","455","929022","0.0-2.0-3.75","JW","1","pretest","true","3676266","null","","",""
"null","../img/tt/1269tt.jpg","","mooney2","image-keyboard-response","456","931023","0.0-2.0-4.75","JW","1","pretest","true","3676266","null","","",""
"968","<p>How strong was your <strong>aha-experience</strong>?</p>","","aha","html-keyboard-response","457","931993","0.0-2.0-5.75","JW","1","pretest","true","3676266","50","../img/tt/1269tt.jpg","","2"
"null","<div style=""font-size:60px;""> </div>","","fixation","html-keyboard-response","458","932199","0.0-2.0-0.76","JW","1","pretest","true","3676266","null","","",""
"null","../img/tt/1210tt.jpg","","mooney1","image-keyboard-response","459","935216","0.0-2.0-1.76","JW","1","pretest","true","3676266","null","../img/tt/1210tt.jpg","",""
"596","<p></p>","","recognized","html-keyboard-response","460","935815","0.0-2.0-2.76","JW","1","pretest","true","3676266","89","../img/tt/1210tt.jpg","y",""
"null","../img/gs/1210gs.jpg","","solution","image-keyboard-response","461","937830","0.0-2.0-3.76","JW","1","pretest","true","3676266","null","","",""
"null","../img/tt/1210tt.jpg","","mooney2","image-keyboard-response","462","939833","0.0-2.0-4.76","JW","1","pretest","true","3676266","null","","",""
"145","<p>How strong was your <strong>aha-experience</strong>?</p>","","aha","html-keyboard-response","463","939979","0.0-2.0-5.76","JW","1","pretest","true","3676266","50","../img/tt/1210tt.jpg","","2"
"null","<div style=""font-size:60px;""> </div>","","fixation","html-keyboard-response","464","940182","0.0-2.0-0.77","JW","1","pretest","true","3676266","null","","",""
"null","../img/tt/073tt.jpg","","mooney1","image-keyboard-response","465","943201","0.0-2.0-1.77","JW","1","pretest","true","3676266","null","../img/tt/073tt.jpg","",""
"794","<p></p>","","recognized","html-keyboard-response","466","943998","0.0-2.0-2.77","JW","1","pretest","true","3676266","89","../img/tt/073tt.jpg","y",""
"null","../img/gs/073gs.jpg","","solution","image-keyboard-response","467","946013","0.0-2.0-3.77","JW","1","pretest","true","3676266","null","","",""
"null","../img/tt/073tt.jpg","","mooney2","image-keyboard-response","468","948015","0.0-2.0-4.77","JW","1","pretest","true","3676266","null","","",""
"505","<p>How strong was your <strong>aha-experience</strong>?</p>","","aha","html-keyboard-response","469","948522","0.0-2.0-5.77","JW","1","pretest","true","3676266","51","../img/tt/073tt.jpg","","3"
"null","<div style=""font-size:60px;""> </div>","","fixation","html-keyboard-response","470","948728","0.0-2.0-0.78","JW","1","pretest","true","3676266","null","","",""
"null","../img/tt/1140tt.jpg","","mooney1","image-keyboard-response","471","951742","0.0-2.0-1.78","JW","1","pretest","true","3676266","null","../img/tt/1140tt.jpg","",""
"582","<p></p>","","recognized","html-keyboard-response","472","952325","0.0-2.0-2.78","JW","1","pretest","true","3676266","89","../img/tt/1140tt.jpg","y",""
"null","../img/gs/1140gs.jpg","","solution","image-keyboard-response","473","954345","0.0-2.0-3.78","JW","1","pretest","true","3676266","null","","",""
"null","../img/tt/1140tt.jpg","","mooney2","image-keyboard-response","474","956332","0.0-2.0-4.78","JW","1","pretest","true","3676266","null","","",""
"1307","<p>How strong was your <strong>aha-experience</strong>?</p>","","aha","html-keyboard-response","475","957641","0.0-2.0-5.78","JW","1","pretest","true","3676266","51","../img/tt/1140tt.jpg","","3"
"null","<div style=""font-size:60px;""> </div>","","fixation","html-keyboard-response","476","957844","0.0-2.0-0.79","JW","1","pretest","true","3676266","null","","",""
"null","../img/tt/1037tt.jpg","","mooney1","image-keyboard-response","477","960847","0.0-2.0-1.79","JW","1","pretest","true","3676266","null","../img/tt/1037tt.jpg","",""
"797","<p></p>","","recognized","html-keyboard-response","478","961645","0.0-2.0-2.79","JW","1","pretest","true","3676266","78","../img/tt/1037tt.jpg","n",""
"null","../img/gs/1037gs.jpg","","solution","image-keyboard-response","479","963666","0.0-2.0-3.79","JW","1","pretest","true","3676266","null","","",""
"null","../img/tt/1037tt.jpg","","mooney2","image-keyboard-response","480","965652","0.0-2.0-4.79","JW","1","pretest","true","3676266","null","","",""
"1034","<p>How strong was your <strong>aha-experience</strong>?</p>","","aha","html-keyboard-response","481","966688","0.0-2.0-5.79","JW","1","pretest","true","3676266","54","../img/tt/1037tt.jpg","","6"
"null","<div style=""font-size:60px;""> </div>","","fixation","html-keyboard-response","482","966890","0.0-2.0-0.80","JW","1","pretest","true","3676266","null","","",""
"null","../img/tt/1234tt.jpg","","mooney1","image-keyboard-response","483","969909","0.0-2.0-1.80","JW","1","pretest","true","3676266","null","../img/tt/1234tt.jpg","",""
"589","<p></p>","","recognized","html-keyboard-response","484","970499","0.0-2.0-2.80","JW","1","pretest","true","3676266","78","../img/tt/1234tt.jpg","n",""
"null","../img/gs/1234gs.jpg","","solution","image-keyboard-response","485","972517","0.0-2.0-3.80","JW","1","pretest","true","3676266","null","","",""
"null","../img/tt/1234tt.jpg","","mooney2","image-keyboard-response","486","974517","0.0-2.0-4.80","JW","1","pretest","true","3676266","null","","",""
"1623","<p>How strong was your <strong>aha-experience</strong>?</p>","","aha","html-keyboard-response","487","976144","0.0-2.0-5.80","JW","1","pretest","true","3676266","53","../img/tt/1234tt.jpg","","5"
"null","<div style=""font-size:60px;""> </div>","","fixation","html-keyboard-response","488","976360","0.0-2.0-0.81","JW","1","pretest","true","3676266","null","","",""
"null","../img/tt/076tt.jpg","","mooney1","image-keyboard-response","489","979375","0.0-2.0-1.81","JW","1","pretest","true","3676266","null","../img/tt/076tt.jpg","",""
"969","<p></p>","","recognized","html-keyboard-response","490","980347","0.0-2.0-2.81","JW","1","pretest","true","3676266","89","../img/tt/076tt.jpg","y",""
"null","../img/gs/076gs.jpg","","solution","image-keyboard-response","491","982351","0.0-2.0-3.81","JW","1","pretest","true","3676266","null","","",""
"null","../img/tt/076tt.jpg","","mooney2","image-keyboard-response","492","984354","0.0-2.0-4.81","JW","1","pretest","true","3676266","null","","",""
"664","<p>How strong was your <strong>aha-experience</strong>?</p>","","aha","html-keyboard-response","493","985020","0.0-2.0-5.81","JW","1","pretest","true","3676266","50","../img/tt/076tt.jpg","","2"
"null","<div style=""font-size:60px;""> </div>","","fixation","html-keyboard-response","494","985230","0.0-2.0-0.82","JW","1","pretest","true","3676266","null","","",""
"null","../img/tt/1147tt.jpg","","mooney1","image-keyboard-response","495","988246","0.0-2.0-1.82","JW","1","pretest","true","3676266","null","../img/tt/1147tt.jpg","",""
"461","<p></p>","","recognized","html-keyboard-response","496","988710","0.0-2.0-2.82","JW","1","pretest","true","3676266","89","../img/tt/1147tt.jpg","y",""
"null","../img/gs/1147gs.jpg","","solution","image-keyboard-response","497","990728","0.0-2.0-3.82","JW","1","pretest","true","3676266","null","","",""
"null","../img/tt/1147tt.jpg","","mooney2","image-keyboard-response","498","992717","0.0-2.0-4.82","JW","1","pretest","true","3676266","null","","",""
"1223","<p>How strong was your <strong>aha-experience</strong>?</p>","","aha","html-keyboard-response","499","993942","0.0-2.0-5.82","JW","1","pretest","true","3676266","52","../img/tt/1147tt.jpg","","4"
"null","<div style=""font-size:60px;""> </div>","","fixation","html-keyboard-response","500","994159","0.0-2.0-0.83","JW","1","pretest","true","3676266","null","","",""
"null","../img/tt/1274tt.jpg","","mooney1","image-keyboard-response","501","997178","0.0-2.0-1.83","JW","1","pretest","true","3676266","null","../img/tt/1274tt.jpg","",""
"584","<p></p>","","recognized","html-keyboard-response","502","997764","0.0-2.0-2.83","JW","1","pretest","true","3676266","89","../img/tt/1274tt.jpg","y",""
"null","../img/gs/1274gs.jpg","","solution","image-keyboard-response","503","999780","0.0-2.0-3.83","JW","1","pretest","true","3676266","null","","",""
"null","../img/tt/1274tt.jpg","","mooney2","image-keyboard-response","504","1001768","0.0-2.0-4.83","JW","1","pretest","true","3676266","null","","",""
"428","<p>How strong was your <strong>aha-experience</strong>?</p>","","aha","html-keyboard-response","505","1002197","0.0-2.0-5.83","JW","1","pretest","true","3676266","50","../img/tt/1274tt.jpg","","2"
"null","<div style=""font-size:60px;""> </div>","","fixation","html-keyboard-response","506","1002402","0.0-2.0-0.84","JW","1","pretest","true","3676266","null","","",""
"null","../img/tt/1121tt.jpg","","mooney1","image-keyboard-response","507","1005408","0.0-2.0-1.84","JW","1","pretest","true","3676266","null","../img/tt/1121tt.jpg","",""
"809","<p></p>","","recognized","html-keyboard-response","508","1006219","0.0-2.0-2.84","JW","1","pretest","true","3676266","78","../img/tt/1121tt.jpg","n",""
"null","../img/gs/1121gs.jpg","","solution","image-keyboard-response","509","1008236","0.0-2.0-3.84","JW","1","pretest","true","3676266","null","","",""
"null","../img/tt/1121tt.jpg","","mooney2","image-keyboard-response","510","1010224","0.0-2.0-4.84","JW","1","pretest","true","3676266","null","","",""
"1794","<p>How strong was your <strong>aha-experience</strong>?</p>","","aha","html-keyboard-response","511","1012021","0.0-2.0-5.84","JW","1","pretest","true","3676266","52","../img/tt/1121tt.jpg","","4"
"null","<div style=""font-size:60px;""> </div>","","fixation","html-keyboard-response","512","1012226","0.0-2.0-0.85","JW","1","pretest","true","3676266","null","","",""
"null","../img/tt/1021tt.jpg","","mooney1","image-keyboard-response","513","1015243","0.0-2.0-1.85","JW","1","pretest","true","3676266","null","../img/tt/1021tt.jpg","",""
"752","<p></p>","","recognized","html-keyboard-response","514","1015997","0.0-2.0-2.85","JW","1","pretest","true","3676266","89","../img/tt/1021tt.jpg","y",""
"null","../img/gs/1021gs.jpg","","solution","image-keyboard-response","515","1018015","0.0-2.0-3.85","JW","1","pretest","true","3676266","null","","",""
"null","../img/tt/1021tt.jpg","","mooney2","image-keyboard-response","516","1020002","0.0-2.0-4.85","JW","1","pretest","true","3676266","null","","",""
"800","<p>How strong was your <strong>aha-experience</strong>?</p>","","aha","html-keyboard-response","517","1020805","0.0-2.0-5.85","JW","1","pretest","true","3676266","53","../img/tt/1021tt.jpg","","5"
"null","<div style=""font-size:60px;""> </div>","","fixation","html-keyboard-response","518","1021009","0.0-2.0-0.86","JW","1","pretest","true","3676266","null","","",""
"null","../img/tt/1067tt.jpg","","mooney1","image-keyboard-response","519","1024014","0.0-2.0-1.86","JW","1","pretest","true","3676266","null","../img/tt/1067tt.jpg","",""
"719","<p></p>","","recognized","html-keyboard-response","520","1024736","0.0-2.0-2.86","JW","1","pretest","true","3676266","89","../img/tt/1067tt.jpg","y",""
"null","../img/gs/1067gs.jpg","","solution","image-keyboard-response","521","1026739","0.0-2.0-3.86","JW","1","pretest","true","3676266","null","","",""
"null","../img/tt/1067tt.jpg","","mooney2","image-keyboard-response","522","1028741","0.0-2.0-4.86","JW","1","pretest","true","3676266","null","","",""
"478","<p>How strong was your <strong>aha-experience</strong>?</p>","","aha","html-keyboard-response","523","1029220","0.0-2.0-5.86","JW","1","pretest","true","3676266","51","../img/tt/1067tt.jpg","","3"
"null","<div style=""font-size:60px;""> </div>","","fixation","html-keyboard-response","524","1029424","0.0-2.0-0.87","JW","1","pretest","true","3676266","null","","",""
"null","../img/tt/037tt.jpg","","mooney1","image-keyboard-response","525","1032429","0.0-2.0-1.87","JW","1","pretest","true","3676266","null","../img/tt/037tt.jpg","",""
"597","<p></p>","","recognized","html-keyboard-response","526","1033027","0.0-2.0-2.87","JW","1","pretest","true","3676266","78","../img/tt/037tt.jpg","n",""
"null","../img/gs/037gs.jpg","","solution","image-keyboard-response","527","1035047","0.0-2.0-3.87","JW","1","pretest","true","3676266","null","","",""
"null","../img/tt/037tt.jpg","","mooney2","image-keyboard-response","528","1037033","0.0-2.0-4.87","JW","1","pretest","true","3676266","null","","",""
"2180","<p>How strong was your <strong>aha-experience</strong>?</p>","","aha","html-keyboard-response","529","1039214","0.0-2.0-5.87","JW","1","pretest","true","3676266","53","../img/tt/037tt.jpg","","5"
"null","<div style=""font-size:60px;""> </div>","","fixation","html-keyboard-response","530","1039419","0.0-2.0-0.88","JW","1","pretest","true","3676266","null","","",""
"null","../img/tt/1087tt.jpg","","mooney1","image-keyboard-response","531","1042423","0.0-2.0-1.88","JW","1","pretest","true","3676266","null","../img/tt/1087tt.jpg","",""
"1260","<p></p>","","recognized","html-keyboard-response","532","1043685","0.0-2.0-2.88","JW","1","pretest","true","3676266","89","../img/tt/1087tt.jpg","y",""
"null","../img/gs/1087gs.jpg","","solution","image-keyboard-response","533","1045704","0.0-2.0-3.88","JW","1","pretest","true","3676266","null","","",""
"null","../img/tt/1087tt.jpg","","mooney2","image-keyboard-response","534","1047692","0.0-2.0-4.88","JW","1","pretest","true","3676266","null","","",""
"2679","<p>How strong was your <strong>aha-experience</strong>?</p>","","aha","html-keyboard-response","535","1050375","0.0-2.0-5.88","JW","1","pretest","true","3676266","52","../img/tt/1087tt.jpg","","4"
"null","<div style=""font-size:60px;""> </div>","","fixation","html-keyboard-response","536","1050578","0.0-2.0-0.89","JW","1","pretest","true","3676266","null","","",""
"null","../img/tt/121tt.jpg","","mooney1","image-keyboard-response","537","1053595","0.0-2.0-1.89","JW","1","pretest","true","3676266","null","../img/tt/121tt.jpg","",""
"713","<p></p>","","recognized","html-keyboard-response","538","1054310","0.0-2.0-2.89","JW","1","pretest","true","3676266","78","../img/tt/121tt.jpg","n",""
"null","../img/gs/121gs.jpg","","solution","image-keyboard-response","539","1056317","0.0-2.0-3.89","JW","1","pretest","true","3676266","null","","",""
"null","../img/tt/121tt.jpg","","mooney2","image-keyboard-response","540","1058315","0.0-2.0-4.89","JW","1","pretest","true","3676266","null","","",""
"1123","<p>How strong was your <strong>aha-experience</strong>?</p>","","aha","html-keyboard-response","541","1059440","0.0-2.0-5.89","JW","1","pretest","true","3676266","54","../img/tt/121tt.jpg","","6"
"null","<div style=""font-size:60px;""> </div>","","fixation","html-keyboard-response","542","1059659","0.0-2.0-0.90","JW","1","pretest","true","3676266","null","","",""
"null","../img/tt/1286tt.jpg","","mooney1","image-keyboard-response","543","1062666","0.0-2.0-1.90","JW","1","pretest","true","3676266","null","../img/tt/1286tt.jpg","",""
"691","<p></p>","","recognized","html-keyboard-response","544","1063359","0.0-2.0-2.90","JW","1","pretest","true","3676266","89","../img/tt/1286tt.jpg","y",""
"null","../img/gs/1286gs.jpg","","solution","image-keyboard-response","545","1065376","0.0-2.0-3.90","JW","1","pretest","true","3676266","null","","",""
"null","../img/tt/1286tt.jpg","","mooney2","image-keyboard-response","546","1067380","0.0-2.0-4.90","JW","1","pretest","true","3676266","null","","",""
"848","<p>How strong was your <strong>aha-experience</strong>?</p>","","aha","html-keyboard-response","547","1068230","0.0-2.0-5.90","JW","1","pretest","true","3676266","51","../img/tt/1286tt.jpg","","3"
"null","<div style=""font-size:60px;""> </div>","","fixation","html-keyboard-response","548","1068435","0.0-2.0-0.91","JW","1","pretest","true","3676266","null","","",""
"null","../img/tt/1136tt.jpg","","mooney1","image-keyboard-response","549","1071438","0.0-2.0-1.91","JW","1","pretest","true","3676266","null","../img/tt/1136tt.jpg","",""
"684","<p></p>","","recognized","html-keyboard-response","550","1072124","0.0-2.0-2.91","JW","1","pretest","true","3676266","89","../img/tt/1136tt.jpg","y",""
"null","../img/gs/1136gs.jpg","","solution","image-keyboard-response","551","1074140","0.0-2.0-3.91","JW","1","pretest","true","3676266","null","","",""
"null","../img/tt/1136tt.jpg","","mooney2","image-keyboard-response","552","1076144","0.0-2.0-4.91","JW","1","pretest","true","3676266","null","","",""
"585","<p>How strong was your <strong>aha-experience</strong>?</p>","","aha","html-keyboard-response","553","1076732","0.0-2.0-5.91","JW","1","pretest","true","3676266","51","../img/tt/1136tt.jpg","","3"
"null","<div style=""font-size:60px;""> </div>","","fixation","html-keyboard-response","554","1076936","0.0-2.0-0.92","JW","1","pretest","true","3676266","null","","",""
"null","../img/tt/106tt.jpg","","mooney1","image-keyboard-response","555","1079951","0.0-2.0-1.92","JW","1","pretest","true","3676266","null","../img/tt/106tt.jpg","",""
"501","<p></p>","","recognized","html-keyboard-response","556","1080455","0.0-2.0-2.92","JW","1","pretest","true","3676266","89","../img/tt/106tt.jpg","y",""
"null","../img/gs/106gs.jpg","","solution","image-keyboard-response","557","1082472","0.0-2.0-3.92","JW","1","pretest","true","3676266","null","","",""
"null","../img/tt/106tt.jpg","","mooney2","image-keyboard-response","558","1084473","0.0-2.0-4.92","JW","1","pretest","true","3676266","null","","",""
"2563","<p>How strong was your <strong>aha-experience</strong>?</p>","","aha","html-keyboard-response","559","1087038","0.0-2.0-5.92","JW","1","pretest","true","3676266","51","../img/tt/106tt.jpg","","3"
"null","<div style=""font-size:60px;""> </div>","","fixation","html-keyboard-response","560","1087246","0.0-2.0-0.93","JW","1","pretest","true","3676266","null","","",""
"null","../img/tt/1225tt.jpg","","mooney1","image-keyboard-response","561","1090261","0.0-2.0-1.93","JW","1","pretest","true","3676266","null","../img/tt/1225tt.jpg","",""
"626","<p></p>","","recognized","html-keyboard-response","562","1090888","0.0-2.0-2.93","JW","1","pretest","true","3676266","78","../img/tt/1225tt.jpg","n",""
"null","../img/gs/1225gs.jpg","","solution","image-keyboard-response","563","1092892","0.0-2.0-3.93","JW","1","pretest","true","3676266","null","","",""
"null","../img/tt/1225tt.jpg","","mooney2","image-keyboard-response","564","1094893","0.0-2.0-4.93","JW","1","pretest","true","3676266","null","","",""
"738","<p>How strong was your <strong>aha-experience</strong>?</p>","","aha","html-keyboard-response","565","1095634","0.0-2.0-5.93","JW","1","pretest","true","3676266","54","../img/tt/1225tt.jpg","","6"
"null","<div style=""font-size:60px;""> </div>","","fixation","html-keyboard-response","566","1095838","0.0-2.0-0.94","JW","1","pretest","true","3676266","null","","",""
"null","../img/tt/046tt.jpg","","mooney1","image-keyboard-response","567","1098857","0.0-2.0-1.94","JW","1","pretest","true","3676266","null","../img/tt/046tt.jpg","",""
"1035","<p></p>","","recognized","html-keyboard-response","568","1099895","0.0-2.0-2.94","JW","1","pretest","true","3676266","78","../img/tt/046tt.jpg","n",""
