"rt","stimulus","button_pressed","test_part","trial_type","trial_index","time_elapsed","internal_node_id","subject","session","experiment_name","complete","totalTime","key_press","currentStim","recognized","aha"
"6393","<div style='word-wrap: break-word; width: 900px'><h3>Please consider this information carefully before deciding whether to participate in this research</h3><ul style='text-align: left; font-size: .8em;'><li><b>Purpose of the research</b>: To examine how people process images.</li><li><b>What you will do in this research</b>:  Stimuli (images) will be presented on the computer and you will be asked different questions about them.</li><li><b>Time required</b>: Participation will take max 60 minutes to complete.</li><li><b>Risks</b>:  There are no anticipated risks associated with participating in this study. The effects of participating should be comparable to those you would experience from viewing a computer monitor for 60 minutes and using a mouse or keyboard.</li><li><b>Benefits</b>:  This study provides no benefits to you individually. The study provides important information about the nature of perception and learning.</li><li><b>Confidentiality</b>:  Your participation in this study will remain confidential. No personally identifiable information will be associated with your data. Your de-identified data may be shared with other researchers and used in future projects.</li><li><b>Participation and withdrawal</b>:  Your participation in this study is completely voluntary and you may refuse to participate or you may choose to withdraw at any time without penalty.</li><li><b>How to contact the researchers</b>: If you have questions or concerns about your participation or payment, or want to request a summary of research findings, please contact Sander Van de Cruys (KU Leuven), at sander.vandecruys@kuleuven.be.</li></ul><p>The nature and purpose of this research have been sufficiently explained and I agree to participate in this study.  I understand that I am free to withdraw at any time without incurring any penalty.</p><p>Please consent by clicking the button below to continue. Otherwise, please exit the study at this time.</p></div>","0","instructions","html-button-response","0","6400","0.0-0.0","JW","2","pretest","true","3530227","","","",""
"45182","<div style='word-wrap: break-word; width: 900px'><h3>Instructions</h3><p>In this experiment you will see a series of distorted images like the one below on the left. As you can see in the righthand image, the distorted images are derived from actual photographs.In what follows, you will <strong>briefly</strong> be presented with <strong>only</strong> the distorted image.</p> <div style='float: left; margin-right: 20px;'><img src='../img/018tt.jpg' height='250' width='250'></img></div><div style='float: right; margin-left: 20px;'><img src='../img/018gs.jpg' height='250' width='250'></img></div><p>To be useful for future research, we need to select those images that people can generally not solve on their own. Therefore we'll show you the distorted image and ask you to indicate (yes or no) whether you already recognized what was in the image. This is not a competition, so please respond truthfully. We don't ask or check your answer, we just want to know whether you think you recognized it. All images depict objects from one of these broad level categories: animals, inanimate objects, plants, sports, vehicles, and food. Recognizing means knowing more than these broad labels for a given image. It means knowing at least the basic level category of the main object in the image, for example when you see a parrot in the image, 'parrot' will obviously be a correct answer but also correct is 'bird', but not 'animal' (the broad level category). For the example above, 'rose' would be correct or 'flower', but not 'plant'. When soccer players are depicted, you don't recognize the image when you just see 'humans', 'outdoors', or 'sports'. Note that complete certainty about your answer is not necessary, it's enough to have a good, definite guess on the object, to say 'yes, I recognized it'.</p><p>One additional question will be asked after we've revealed the solution: You'll be asked to indicate how strong your <strong>aha-experience</strong> was. This describes the positive 'click' you sometimes experience, when the pieces of the 'puzzle' fall together and you suddenly have 'insight' in the image. It describes how good you felt the 'fit' was between the distorted image and the solution.</p><p>Press any key to start.</p></div>","","instructions","html-keyboard-response","1","51585","0.0-1.0","JW","2","pretest","true","3530227","66","","",""
"null","<div style=""font-size:60px;""> </div>","","fixation","html-keyboard-response","2","51795","0.0-2.0-0.0","JW","2","pretest","true","3530227","null","","",""
"null","../img/tt/433tt.jpg","","mooney1","image-keyboard-response","3","54799","0.0-2.0-1.0","JW","2","pretest","true","3530227","null","../img/tt/433tt.jpg","",""
"23708","<p></p>","","recognized","html-keyboard-response","4","78509","0.0-2.0-2.0","JW","2","pretest","true","3530227","78","../img/tt/433tt.jpg","n",""
"null","../img/gs/433gs.jpg","","solution","image-keyboard-response","5","80523","0.0-2.0-3.0","JW","2","pretest","true","3530227","null","","",""
"null","../img/tt/433tt.jpg","","mooney2","image-keyboard-response","6","82519","0.0-2.0-4.0","JW","2","pretest","true","3530227","null","","",""
"4061","<p>How strong was your <strong>aha-experience</strong>?</p>","","aha","html-keyboard-response","7","86582","0.0-2.0-5.0","JW","2","pretest","true","3530227","53","../img/tt/433tt.jpg","","5"
"null","<div style=""font-size:60px;""> </div>","","fixation","html-keyboard-response","8","86805","0.0-2.0-0.1","JW","2","pretest","true","3530227","null","","",""
"null","../img/tt/312tt.jpg","","mooney1","image-keyboard-response","9","89811","0.0-2.0-1.1","JW","2","pretest","true","3530227","null","../img/tt/312tt.jpg","",""
"1522","<p></p>","","recognized","html-keyboard-response","10","91335","0.0-2.0-2.1","JW","2","pretest","true","3530227","78","../img/tt/312tt.jpg","n",""
"null","../img/gs/312gs.jpg","","solution","image-keyboard-response","11","93347","0.0-2.0-3.1","JW","2","pretest","true","3530227","null","","",""
"null","../img/tt/312tt.jpg","","mooney2","image-keyboard-response","12","95344","0.0-2.0-4.1","JW","2","pretest","true","3530227","null","","",""
"150","<p>How strong was your <strong>aha-experience</strong>?</p>","","aha","html-keyboard-response","13","95494","0.0-2.0-5.1","JW","2","pretest","true","3530227","52","../img/tt/312tt.jpg","","4"
"null","<div style=""font-size:60px;""> </div>","","fixation","html-keyboard-response","14","95704","0.0-2.0-0.2","JW","2","pretest","true","3530227","null","","",""
"null","../img/tt/338tt.jpg","","mooney1","image-keyboard-response","15","98720","0.0-2.0-1.2","JW","2","pretest","true","3530227","null","../img/tt/338tt.jpg","",""
"1539","<p></p>","","recognized","html-keyboard-response","16","100260","0.0-2.0-2.2","JW","2","pretest","true","3530227","78","../img/tt/338tt.jpg","n",""
"null","../img/gs/338gs.jpg","","solution","image-keyboard-response","17","102274","0.0-2.0-3.2","JW","2","pretest","true","3530227","null","","",""
"null","../img/tt/338tt.jpg","","mooney2","image-keyboard-response","18","104271","0.0-2.0-4.2","JW","2","pretest","true","3530227","null","","",""
"1685","<p>How strong was your <strong>aha-experience</strong>?</p>","","aha","html-keyboard-response","19","105958","0.0-2.0-5.2","JW","2","pretest","true","3530227","53","../img/tt/338tt.jpg","","5"
"null","<div style=""font-size:60px;""> </div>","","fixation","html-keyboard-response","20","106170","0.0-2.0-0.3","JW","2","pretest","true","3530227","null","","",""
"null","../img/tt/1339tt.jpg","","mooney1","image-keyboard-response","21","109185","0.0-2.0-1.3","JW","2","pretest","true","3530227","null","../img/tt/1339tt.jpg","",""
"654","<p></p>","","recognized","html-keyboard-response","22","109841","0.0-2.0-2.3","JW","2","pretest","true","3530227","89","../img/tt/1339tt.jpg","y",""
"null","../img/gs/1339gs.jpg","","solution","image-keyboard-response","23","111855","0.0-2.0-3.3","JW","2","pretest","true","3530227","null","","",""
"null","../img/tt/1339tt.jpg","","mooney2","image-keyboard-response","24","113860","0.0-2.0-4.3","JW","2","pretest","true","3530227","null","","",""
"1125","<p>How strong was your <strong>aha-experience</strong>?</p>","","aha","html-keyboard-response","25","114986","0.0-2.0-5.3","JW","2","pretest","true","3530227","51","../img/tt/1339tt.jpg","","3"
"null","<div style=""font-size:60px;""> </div>","","fixation","html-keyboard-response","26","115199","0.0-2.0-0.4","JW","2","pretest","true","3530227","null","","",""
"null","../img/tt/365tt.jpg","","mooney1","image-keyboard-response","27","118214","0.0-2.0-1.4","JW","2","pretest","true","3530227","null","../img/tt/365tt.jpg","",""
"782","<p></p>","","recognized","html-keyboard-response","28","118997","0.0-2.0-2.4","JW","2","pretest","true","3530227","89","../img/tt/365tt.jpg","y",""
"null","../img/gs/365gs.jpg","","solution","image-keyboard-response","29","121013","0.0-2.0-3.4","JW","2","pretest","true","3530227","null","","",""
"null","../img/tt/365tt.jpg","","mooney2","image-keyboard-response","30","123010","0.0-2.0-4.4","JW","2","pretest","true","3530227","null","","",""
"968","<p>How strong was your <strong>aha-experience</strong>?</p>","","aha","html-keyboard-response","31","123980","0.0-2.0-5.4","JW","2","pretest","true","3530227","52","../img/tt/365tt.jpg","","4"
"null","<div style=""font-size:60px;""> </div>","","fixation","html-keyboard-response","32","124190","0.0-2.0-0.5","JW","2","pretest","true","3530227","null","","",""
"null","../img/tt/488tt.jpg","","mooney1","image-keyboard-response","33","127203","0.0-2.0-1.5","JW","2","pretest","true","3530227","null","../img/tt/488tt.jpg","",""
"1022","<p></p>","","recognized","html-keyboard-response","34","128226","0.0-2.0-2.5","JW","2","pretest","true","3530227","78","../img/tt/488tt.jpg","n",""
"null","../img/gs/488gs.jpg","","solution","image-keyboard-response","35","130239","0.0-2.0-3.5","JW","2","pretest","true","3530227","null","","",""
"null","../img/tt/488tt.jpg","","mooney2","image-keyboard-response","36","132233","0.0-2.0-4.5","JW","2","pretest","true","3530227","null","","",""
"816","<p>How strong was your <strong>aha-experience</strong>?</p>","","aha","html-keyboard-response","37","133052","0.0-2.0-5.5","JW","2","pretest","true","3530227","52","../img/tt/488tt.jpg","","4"
"null","<div style=""font-size:60px;""> </div>","","fixation","html-keyboard-response","38","133262","0.0-2.0-0.6","JW","2","pretest","true","3530227","null","","",""
"null","../img/tt/179tt.jpg","","mooney1","image-keyboard-response","39","136277","0.0-2.0-1.6","JW","2","pretest","true","3530227","null","../img/tt/179tt.jpg","",""
"1567","<p></p>","","recognized","html-keyboard-response","40","137844","0.0-2.0-2.6","JW","2","pretest","true","3530227","78","../img/tt/179tt.jpg","n",""
"null","../img/gs/179gs.jpg","","solution","image-keyboard-response","41","139868","0.0-2.0-3.6","JW","2","pretest","true","3530227","null","","",""
"null","../img/tt/179tt.jpg","","mooney2","image-keyboard-response","42","141860","0.0-2.0-4.6","JW","2","pretest","true","3530227","null","","",""
"280","<p>How strong was your <strong>aha-experience</strong>?</p>","","aha","html-keyboard-response","43","142142","0.0-2.0-5.6","JW","2","pretest","true","3530227","52","../img/tt/179tt.jpg","","4"
"null","<div style=""font-size:60px;""> </div>","","fixation","html-keyboard-response","44","142353","0.0-2.0-0.7","JW","2","pretest","true","3530227","null","","",""
"null","../img/tt/414tt.jpg","","mooney1","image-keyboard-response","45","145369","0.0-2.0-1.7","JW","2","pretest","true","3530227","null","../img/tt/414tt.jpg","",""
"1083","<p></p>","","recognized","html-keyboard-response","46","146454","0.0-2.0-2.7","JW","2","pretest","true","3530227","78","../img/tt/414tt.jpg","n",""
"null","../img/gs/414gs.jpg","","solution","image-keyboard-response","47","148465","0.0-2.0-3.7","JW","2","pretest","true","3530227","null","","",""
"null","../img/tt/414tt.jpg","","mooney2","image-keyboard-response","48","150467","0.0-2.0-4.7","JW","2","pretest","true","3530227","null","","",""
"1003","<p>How strong was your <strong>aha-experience</strong>?</p>","","aha","html-keyboard-response","49","151471","0.0-2.0-5.7","JW","2","pretest","true","3530227","53","../img/tt/414tt.jpg","","5"
"null","<div style=""font-size:60px;""> </div>","","fixation","html-keyboard-response","50","151682","0.0-2.0-0.8","JW","2","pretest","true","3530227","null","","",""
"null","../img/tt/1304tt.jpg","","mooney1","image-keyboard-response","51","154697","0.0-2.0-1.8","JW","2","pretest","true","3530227","null","../img/tt/1304tt.jpg","",""
"1323","<p></p>","","recognized","html-keyboard-response","52","156021","0.0-2.0-2.8","JW","2","pretest","true","3530227","89","../img/tt/1304tt.jpg","y",""
"null","../img/gs/1304gs.jpg","","solution","image-keyboard-response","53","158032","0.0-2.0-3.8","JW","2","pretest","true","3530227","null","","",""
"null","../img/tt/1304tt.jpg","","mooney2","image-keyboard-response","54","160028","0.0-2.0-4.8","JW","2","pretest","true","3530227","null","","",""
"1810","<p>How strong was your <strong>aha-experience</strong>?</p>","","aha","html-keyboard-response","55","161843","0.0-2.0-5.8","JW","2","pretest","true","3530227","52","../img/tt/1304tt.jpg","","4"
"null","<div style=""font-size:60px;""> </div>","","fixation","html-keyboard-response","56","162067","0.0-2.0-0.9","JW","2","pretest","true","3530227","null","","",""
"null","../img/tt/167tt.jpg","","mooney1","image-keyboard-response","57","165075","0.0-2.0-1.9","JW","2","pretest","true","3530227","null","../img/tt/167tt.jpg","",""
"645","<p></p>","","recognized","html-keyboard-response","58","165721","0.0-2.0-2.9","JW","2","pretest","true","3530227","89","../img/tt/167tt.jpg","y",""
"null","../img/gs/167gs.jpg","","solution","image-keyboard-response","59","167730","0.0-2.0-3.9","JW","2","pretest","true","3530227","null","","",""
"null","../img/tt/167tt.jpg","","mooney2","image-keyboard-response","60","169727","0.0-2.0-4.9","JW","2","pretest","true","3530227","null","","",""
"1300","<p>How strong was your <strong>aha-experience</strong>?</p>","","aha","html-keyboard-response","61","171029","0.0-2.0-5.9","JW","2","pretest","true","3530227","49","../img/tt/167tt.jpg","","1"
"null","<div style=""font-size:60px;""> </div>","","fixation","html-keyboard-response","62","171241","0.0-2.0-0.10","JW","2","pretest","true","3530227","null","","",""
"null","../img/tt/437tt.jpg","","mooney1","image-keyboard-response","63","174265","0.0-2.0-1.10","JW","2","pretest","true","3530227","null","../img/tt/437tt.jpg","",""
"1155","<p></p>","","recognized","html-keyboard-response","64","175422","0.0-2.0-2.10","JW","2","pretest","true","3530227","89","../img/tt/437tt.jpg","y",""
"null","../img/gs/437gs.jpg","","solution","image-keyboard-response","65","177443","0.0-2.0-3.10","JW","2","pretest","true","3530227","null","","",""
"null","../img/tt/437tt.jpg","","mooney2","image-keyboard-response","66","179433","0.0-2.0-4.10","JW","2","pretest","true","3530227","null","","",""
"875","<p>How strong was your <strong>aha-experience</strong>?</p>","","aha","html-keyboard-response","67","180309","0.0-2.0-5.10","JW","2","pretest","true","3530227","53","../img/tt/437tt.jpg","","5"
"null","<div style=""font-size:60px;""> </div>","","fixation","html-keyboard-response","68","180520","0.0-2.0-0.11","JW","2","pretest","true","3530227","null","","",""
"null","../img/tt/463tt.jpg","","mooney1","image-keyboard-response","69","183534","0.0-2.0-1.11","JW","2","pretest","true","3530227","null","../img/tt/463tt.jpg","",""
"923","<p></p>","","recognized","html-keyboard-response","70","184457","0.0-2.0-2.11","JW","2","pretest","true","3530227","89","../img/tt/463tt.jpg","y",""
"null","../img/gs/463gs.jpg","","solution","image-keyboard-response","71","186479","0.0-2.0-3.11","JW","2","pretest","true","3530227","null","","",""
"null","../img/tt/463tt.jpg","","mooney2","image-keyboard-response","72","188468","0.0-2.0-4.11","JW","2","pretest","true","3530227","null","","",""
"769","<p>How strong was your <strong>aha-experience</strong>?</p>","","aha","html-keyboard-response","73","189239","0.0-2.0-5.11","JW","2","pretest","true","3530227","53","../img/tt/463tt.jpg","","5"
"null","<div style=""font-size:60px;""> </div>","","fixation","html-keyboard-response","74","189450","0.0-2.0-0.12","JW","2","pretest","true","3530227","null","","",""
"null","../img/tt/407tt.jpg","","mooney1","image-keyboard-response","75","192463","0.0-2.0-1.12","JW","2","pretest","true","3530227","null","../img/tt/407tt.jpg","",""
"617","<p></p>","","recognized","html-keyboard-response","76","193081","0.0-2.0-2.12","JW","2","pretest","true","3530227","89","../img/tt/407tt.jpg","y",""
"null","../img/gs/407gs.jpg","","solution","image-keyboard-response","77","195095","0.0-2.0-3.12","JW","2","pretest","true","3530227","null","","",""
"null","../img/tt/407tt.jpg","","mooney2","image-keyboard-response","78","197104","0.0-2.0-4.12","JW","2","pretest","true","3530227","null","","",""
"4364","<p>How strong was your <strong>aha-experience</strong>?</p>","","aha","html-keyboard-response","79","201470","0.0-2.0-5.12","JW","2","pretest","true","3530227","50","../img/tt/407tt.jpg","","2"
"null","<div style=""font-size:60px;""> </div>","","fixation","html-keyboard-response","80","201682","0.0-2.0-0.13","JW","2","pretest","true","3530227","null","","",""
"null","../img/tt/348tt.jpg","","mooney1","image-keyboard-response","81","204686","0.0-2.0-1.13","JW","2","pretest","true","3530227","null","../img/tt/348tt.jpg","",""
"1955","<p></p>","","recognized","html-keyboard-response","82","206642","0.0-2.0-2.13","JW","2","pretest","true","3530227","78","../img/tt/348tt.jpg","n",""
"null","../img/gs/348gs.jpg","","solution","image-keyboard-response","83","208656","0.0-2.0-3.13","JW","2","pretest","true","3530227","null","","",""
"null","../img/tt/348tt.jpg","","mooney2","image-keyboard-response","84","210650","0.0-2.0-4.13","JW","2","pretest","true","3530227","null","","",""
"4707","<p>How strong was your <strong>aha-experience</strong>?</p>","","aha","html-keyboard-response","85","215360","0.0-2.0-5.13","JW","2","pretest","true","3530227","52","../img/tt/348tt.jpg","","4"
"null","<div style=""font-size:60px;""> </div>","","fixation","html-keyboard-response","86","215572","0.0-2.0-0.14","JW","2","pretest","true","3530227","null","","",""
"null","../img/tt/328tt.jpg","","mooney1","image-keyboard-response","87","218579","0.0-2.0-1.14","JW","2","pretest","true","3530227","null","../img/tt/328tt.jpg","",""
"1229","<p></p>","","recognized","html-keyboard-response","88","219811","0.0-2.0-2.14","JW","2","pretest","true","3530227","78","../img/tt/328tt.jpg","n",""
"null","../img/gs/328gs.jpg","","solution","image-keyboard-response","89","221823","0.0-2.0-3.14","JW","2","pretest","true","3530227","null","","",""
"null","../img/tt/328tt.jpg","","mooney2","image-keyboard-response","90","223822","0.0-2.0-4.14","JW","2","pretest","true","3530227","null","","",""
"842","<p>How strong was your <strong>aha-experience</strong>?</p>","","aha","html-keyboard-response","91","224666","0.0-2.0-5.14","JW","2","pretest","true","3530227","52","../img/tt/328tt.jpg","","4"
"null","<div style=""font-size:60px;""> </div>","","fixation","html-keyboard-response","92","224879","0.0-2.0-0.15","JW","2","pretest","true","3530227","null","","",""
"null","../img/tt/472tt.jpg","","mooney1","image-keyboard-response","93","227891","0.0-2.0-1.15","JW","2","pretest","true","3530227","null","../img/tt/472tt.jpg","",""
"578","<p></p>","","recognized","html-keyboard-response","94","228471","0.0-2.0-2.15","JW","2","pretest","true","3530227","89","../img/tt/472tt.jpg","y",""
"null","../img/gs/472gs.jpg","","solution","image-keyboard-response","95","230497","0.0-2.0-3.15","JW","2","pretest","true","3530227","null","","",""
"null","../img/tt/472tt.jpg","","mooney2","image-keyboard-response","96","232484","0.0-2.0-4.15","JW","2","pretest","true","3530227","null","","",""
"880","<p>How strong was your <strong>aha-experience</strong>?</p>","","aha","html-keyboard-response","97","233366","0.0-2.0-5.15","JW","2","pretest","true","3530227","49","../img/tt/472tt.jpg","","1"
"null","<div style=""font-size:60px;""> </div>","","fixation","html-keyboard-response","98","233577","0.0-2.0-0.16","JW","2","pretest","true","3530227","null","","",""
"null","../img/tt/315tt.jpg","","mooney1","image-keyboard-response","99","236592","0.0-2.0-1.16","JW","2","pretest","true","3530227","null","../img/tt/315tt.jpg","",""
"1112","<p></p>","","recognized","html-keyboard-response","100","237706","0.0-2.0-2.16","JW","2","pretest","true","3530227","78","../img/tt/315tt.jpg","n",""
"null","../img/gs/315gs.jpg","","solution","image-keyboard-response","101","239722","0.0-2.0-3.16","JW","2","pretest","true","3530227","null","","",""
"null","../img/tt/315tt.jpg","","mooney2","image-keyboard-response","102","241719","0.0-2.0-4.16","JW","2","pretest","true","3530227","null","","",""
"1128","<p>How strong was your <strong>aha-experience</strong>?</p>","","aha","html-keyboard-response","103","242850","0.0-2.0-5.16","JW","2","pretest","true","3530227","52","../img/tt/315tt.jpg","","4"
"null","<div style=""font-size:60px;""> </div>","","fixation","html-keyboard-response","104","243061","0.0-2.0-0.17","JW","2","pretest","true","3530227","null","","",""
"null","../img/tt/241tt.jpg","","mooney1","image-keyboard-response","105","246074","0.0-2.0-1.17","JW","2","pretest","true","3530227","null","../img/tt/241tt.jpg","",""
"712","<p></p>","","recognized","html-keyboard-response","106","246788","0.0-2.0-2.17","JW","2","pretest","true","3530227","89","../img/tt/241tt.jpg","y",""
"null","../img/gs/241gs.jpg","","solution","image-keyboard-response","107","248801","0.0-2.0-3.17","JW","2","pretest","true","3530227","null","","",""
"null","../img/tt/241tt.jpg","","mooney2","image-keyboard-response","108","250799","0.0-2.0-4.17","JW","2","pretest","true","3530227","null","","",""
"61","<p>How strong was your <strong>aha-experience</strong>?</p>","","aha","html-keyboard-response","109","250861","0.0-2.0-5.17","JW","2","pretest","true","3530227","52","../img/tt/241tt.jpg","","4"
"null","<div style=""font-size:60px;""> </div>","","fixation","html-keyboard-response","110","251077","0.0-2.0-0.18","JW","2","pretest","true","3530227","null","","",""
"null","../img/tt/539tt.jpg","","mooney1","image-keyboard-response","111","254092","0.0-2.0-1.18","JW","2","pretest","true","3530227","null","../img/tt/539tt.jpg","",""
"562","<p></p>","","recognized","html-keyboard-response","112","254655","0.0-2.0-2.18","JW","2","pretest","true","3530227","89","../img/tt/539tt.jpg","y",""
"null","../img/gs/539gs.jpg","","solution","image-keyboard-response","113","256668","0.0-2.0-3.18","JW","2","pretest","true","3530227","null","","",""
"null","../img/tt/539tt.jpg","","mooney2","image-keyboard-response","114","258668","0.0-2.0-4.18","JW","2","pretest","true","3530227","null","","",""
"588","<p>How strong was your <strong>aha-experience</strong>?</p>","","aha","html-keyboard-response","115","259257","0.0-2.0-5.18","JW","2","pretest","true","3530227","49","../img/tt/539tt.jpg","","1"
"null","<div style=""font-size:60px;""> </div>","","fixation","html-keyboard-response","116","259469","0.0-2.0-0.19","JW","2","pretest","true","3530227","null","","",""
"null","../img/tt/204tt.jpg","","mooney1","image-keyboard-response","117","262486","0.0-2.0-1.19","JW","2","pretest","true","3530227","null","../img/tt/204tt.jpg","",""
"42","<p></p>","","recognized","html-keyboard-response","118","262529","0.0-2.0-2.19","JW","2","pretest","true","3530227","89","../img/tt/204tt.jpg","y",""
"null","../img/gs/204gs.jpg","","solution","image-keyboard-response","119","264534","0.0-2.0-3.19","JW","2","pretest","true","3530227","null","","",""
"null","../img/tt/204tt.jpg","","mooney2","image-keyboard-response","120","266531","0.0-2.0-4.19","JW","2","pretest","true","3530227","null","","",""
"2208","<p>How strong was your <strong>aha-experience</strong>?</p>","","aha","html-keyboard-response","121","268741","0.0-2.0-5.19","JW","2","pretest","true","3530227","51","../img/tt/204tt.jpg","","3"
"null","<div style=""font-size:60px;""> </div>","","fixation","html-keyboard-response","122","268951","0.0-2.0-0.20","JW","2","pretest","true","3530227","null","","",""
"null","../img/tt/1323tt.jpg","","mooney1","image-keyboard-response","123","271955","0.0-2.0-1.20","JW","2","pretest","true","3530227","null","../img/tt/1323tt.jpg","",""
"605","<p></p>","","recognized","html-keyboard-response","124","272562","0.0-2.0-2.20","JW","2","pretest","true","3530227","89","../img/tt/1323tt.jpg","y",""
"null","../img/gs/1323gs.jpg","","solution","image-keyboard-response","125","274575","0.0-2.0-3.20","JW","2","pretest","true","3530227","null","","",""
"null","../img/tt/1323tt.jpg","","mooney2","image-keyboard-response","126","276581","0.0-2.0-4.20","JW","2","pretest","true","3530227","null","","",""
"811","<p>How strong was your <strong>aha-experience</strong>?</p>","","aha","html-keyboard-response","127","277394","0.0-2.0-5.20","JW","2","pretest","true","3530227","53","../img/tt/1323tt.jpg","","5"
"null","<div style=""font-size:60px;""> </div>","","fixation","html-keyboard-response","128","277606","0.0-2.0-0.21","JW","2","pretest","true","3530227","null","","",""
"null","../img/tt/195tt.jpg","","mooney1","image-keyboard-response","129","280613","0.0-2.0-1.21","JW","2","pretest","true","3530227","null","../img/tt/195tt.jpg","",""
"543","<p></p>","","recognized","html-keyboard-response","130","281157","0.0-2.0-2.21","JW","2","pretest","true","3530227","78","../img/tt/195tt.jpg","n",""
"null","../img/gs/195gs.jpg","","solution","image-keyboard-response","131","283172","0.0-2.0-3.21","JW","2","pretest","true","3530227","null","","",""
"null","../img/tt/195tt.jpg","","mooney2","image-keyboard-response","132","285170","0.0-2.0-4.21","JW","2","pretest","true","3530227","null","","",""
"645","<p>How strong was your <strong>aha-experience</strong>?</p>","","aha","html-keyboard-response","133","285818","0.0-2.0-5.21","JW","2","pretest","true","3530227","51","../img/tt/195tt.jpg","","3"
"null","<div style=""font-size:60px;""> </div>","","fixation","html-keyboard-response","134","286019","0.0-2.0-0.22","JW","2","pretest","true","3530227","null","","",""
"null","../img/tt/565tt.jpg","","mooney1","image-keyboard-response","135","289035","0.0-2.0-1.22","JW","2","pretest","true","3530227","null","../img/tt/565tt.jpg","",""
"1222","<p></p>","","recognized","html-keyboard-response","136","290257","0.0-2.0-2.22","JW","2","pretest","true","3530227","78","../img/tt/565tt.jpg","n",""
"null","../img/gs/565gs.jpg","","solution","image-keyboard-response","137","292268","0.0-2.0-3.22","JW","2","pretest","true","3530227","null","","",""
"null","../img/tt/565tt.jpg","","mooney2","image-keyboard-response","138","294266","0.0-2.0-4.22","JW","2","pretest","true","3530227","null","","",""
"2432","<p>How strong was your <strong>aha-experience</strong>?</p>","","aha","html-keyboard-response","139","296699","0.0-2.0-5.22","JW","2","pretest","true","3530227","54","../img/tt/565tt.jpg","","6"
"null","<div style=""font-size:60px;""> </div>","","fixation","html-keyboard-response","140","296909","0.0-2.0-0.23","JW","2","pretest","true","3530227","null","","",""
"null","../img/tt/132tt.jpg","","mooney1","image-keyboard-response","141","299927","0.0-2.0-1.23","JW","2","pretest","true","3530227","null","../img/tt/132tt.jpg","",""
"1337","<p></p>","","recognized","html-keyboard-response","142","301265","0.0-2.0-2.23","JW","2","pretest","true","3530227","89","../img/tt/132tt.jpg","y",""
"null","../img/gs/132gs.jpg","","solution","image-keyboard-response","143","303279","0.0-2.0-3.23","JW","2","pretest","true","3530227","null","","",""
"null","../img/tt/132tt.jpg","","mooney2","image-keyboard-response","144","305274","0.0-2.0-4.23","JW","2","pretest","true","3530227","null","","",""
"756","<p>How strong was your <strong>aha-experience</strong>?</p>","","aha","html-keyboard-response","145","306031","0.0-2.0-5.23","JW","2","pretest","true","3530227","50","../img/tt/132tt.jpg","","2"
"null","<div style=""font-size:60px;""> </div>","","fixation","html-keyboard-response","146","306254","0.0-2.0-0.24","JW","2","pretest","true","3530227","null","","",""
"null","../img/tt/269tt.jpg","","mooney1","image-keyboard-response","147","309261","0.0-2.0-1.24","JW","2","pretest","true","3530227","null","../img/tt/269tt.jpg","",""
"1243","<p></p>","","recognized","html-keyboard-response","148","310506","0.0-2.0-2.24","JW","2","pretest","true","3530227","89","../img/tt/269tt.jpg","y",""
"null","../img/gs/269gs.jpg","","solution","image-keyboard-response","149","312516","0.0-2.0-3.24","JW","2","pretest","true","3530227","null","","",""
"null","../img/tt/269tt.jpg","","mooney2","image-keyboard-response","150","314513","0.0-2.0-4.24","JW","2","pretest","true","3530227","null","","",""
"326","<p>How strong was your <strong>aha-experience</strong>?</p>","","aha","html-keyboard-response","151","314841","0.0-2.0-5.24","JW","2","pretest","true","3530227","51","../img/tt/269tt.jpg","","3"
"null","<div style=""font-size:60px;""> </div>","","fixation","html-keyboard-response","152","315053","0.0-2.0-0.25","JW","2","pretest","true","3530227","null","","",""
"null","../img/tt/480tt.jpg","","mooney1","image-keyboard-response","153","318068","0.0-2.0-1.25","JW","2","pretest","true","3530227","null","../img/tt/480tt.jpg","",""
"999","<p></p>","","recognized","html-keyboard-response","154","319069","0.0-2.0-2.25","JW","2","pretest","true","3530227","78","../img/tt/480tt.jpg","n",""
"null","../img/gs/480gs.jpg","","solution","image-keyboard-response","155","321089","0.0-2.0-3.25","JW","2","pretest","true","3530227","null","","",""
"null","../img/tt/480tt.jpg","","mooney2","image-keyboard-response","156","323080","0.0-2.0-4.25","JW","2","pretest","true","3530227","null","","",""
"581","<p>How strong was your <strong>aha-experience</strong>?</p>","","aha","html-keyboard-response","157","323663","0.0-2.0-5.25","JW","2","pretest","true","3530227","52","../img/tt/480tt.jpg","","4"
"null","<div style=""font-size:60px;""> </div>","","fixation","html-keyboard-response","158","323873","0.0-2.0-0.26","JW","2","pretest","true","3530227","null","","",""
"null","../img/tt/1309tt.jpg","","mooney1","image-keyboard-response","159","326896","0.0-2.0-1.26","JW","2","pretest","true","3530227","null","../img/tt/1309tt.jpg","",""
"2783","<p></p>","","recognized","html-keyboard-response","160","329681","0.0-2.0-2.26","JW","2","pretest","true","3530227","78","../img/tt/1309tt.jpg","n",""
"null","../img/gs/1309gs.jpg","","solution","image-keyboard-response","161","331704","0.0-2.0-3.26","JW","2","pretest","true","3530227","null","","",""
"null","../img/tt/1309tt.jpg","","mooney2","image-keyboard-response","162","333692","0.0-2.0-4.26","JW","2","pretest","true","3530227","null","","",""
"1044","<p>How strong was your <strong>aha-experience</strong>?</p>","","aha","html-keyboard-response","163","334737","0.0-2.0-5.26","JW","2","pretest","true","3530227","52","../img/tt/1309tt.jpg","","4"
"null","<div style=""font-size:60px;""> </div>","","fixation","html-keyboard-response","164","334950","0.0-2.0-0.27","JW","2","pretest","true","3530227","null","","",""
"null","../img/tt/289tt.jpg","","mooney1","image-keyboard-response","165","337965","0.0-2.0-1.27","JW","2","pretest","true","3530227","null","../img/tt/289tt.jpg","",""
"1360","<p></p>","","recognized","html-keyboard-response","166","339328","0.0-2.0-2.27","JW","2","pretest","true","3530227","78","../img/tt/289tt.jpg","n",""
"null","../img/gs/289gs.jpg","","solution","image-keyboard-response","167","341342","0.0-2.0-3.27","JW","2","pretest","true","3530227","null","","",""
"null","../img/tt/289tt.jpg","","mooney2","image-keyboard-response","168","343350","0.0-2.0-4.27","JW","2","pretest","true","3530227","null","","",""
"1075","<p>How strong was your <strong>aha-experience</strong>?</p>","","aha","html-keyboard-response","169","344428","0.0-2.0-5.27","JW","2","pretest","true","3530227","52","../img/tt/289tt.jpg","","4"
"null","<div style=""font-size:60px;""> </div>","","fixation","html-keyboard-response","170","344640","0.0-2.0-0.28","JW","2","pretest","true","3530227","null","","",""
"null","../img/tt/209tt.jpg","","mooney1","image-keyboard-response","171","347657","0.0-2.0-1.28","JW","2","pretest","true","3530227","null","../img/tt/209tt.jpg","",""
"484","<p></p>","","recognized","html-keyboard-response","172","348143","0.0-2.0-2.28","JW","2","pretest","true","3530227","89","../img/tt/209tt.jpg","y",""
"null","../img/gs/209gs.jpg","","solution","image-keyboard-response","173","350156","0.0-2.0-3.28","JW","2","pretest","true","3530227","null","","",""
"null","../img/tt/209tt.jpg","","mooney2","image-keyboard-response","174","352153","0.0-2.0-4.28","JW","2","pretest","true","3530227","null","","",""
"3845","<p>How strong was your <strong>aha-experience</strong>?</p>","","aha","html-keyboard-response","175","356000","0.0-2.0-5.28","JW","2","pretest","true","3530227","53","../img/tt/209tt.jpg","","5"
"null","<div style=""font-size:60px;""> </div>","","fixation","html-keyboard-response","176","356211","0.0-2.0-0.29","JW","2","pretest","true","3530227","null","","",""
"null","../img/tt/306tt.jpg","","mooney1","image-keyboard-response","177","359221","0.0-2.0-1.29","JW","2","pretest","true","3530227","null","../img/tt/306tt.jpg","",""
"546","<p></p>","","recognized","html-keyboard-response","178","359769","0.0-2.0-2.29","JW","2","pretest","true","3530227","78","../img/tt/306tt.jpg","n",""
"null","../img/gs/306gs.jpg","","solution","image-keyboard-response","179","361778","0.0-2.0-3.29","JW","2","pretest","true","3530227","null","","",""
"null","../img/tt/306tt.jpg","","mooney2","image-keyboard-response","180","363777","0.0-2.0-4.29","JW","2","pretest","true","3530227","null","","",""
"693","<p>How strong was your <strong>aha-experience</strong>?</p>","","aha","html-keyboard-response","181","364472","0.0-2.0-5.29","JW","2","pretest","true","3530227","53","../img/tt/306tt.jpg","","5"
"null","<div style=""font-size:60px;""> </div>","","fixation","html-keyboard-response","182","364683","0.0-2.0-0.30","JW","2","pretest","true","3530227","null","","",""
"null","../img/tt/430tt.jpg","","mooney1","image-keyboard-response","183","367683","0.0-2.0-1.30","JW","2","pretest","true","3530227","null","../img/tt/430tt.jpg","",""
"561","<p></p>","","recognized","html-keyboard-response","184","368245","0.0-2.0-2.30","JW","2","pretest","true","3530227","89","../img/tt/430tt.jpg","y",""
"null","../img/gs/430gs.jpg","","solution","image-keyboard-response","185","370257","0.0-2.0-3.30","JW","2","pretest","true","3530227","null","","",""
"null","../img/tt/430tt.jpg","","mooney2","image-keyboard-response","186","372254","0.0-2.0-4.30","JW","2","pretest","true","3530227","null","","",""
"560","<p>How strong was your <strong>aha-experience</strong>?</p>","","aha","html-keyboard-response","187","372816","0.0-2.0-5.30","JW","2","pretest","true","3530227","50","../img/tt/430tt.jpg","","2"
"null","<div style=""font-size:60px;""> </div>","","fixation","html-keyboard-response","188","373040","0.0-2.0-0.31","JW","2","pretest","true","3530227","null","","",""
"null","../img/tt/519tt.jpg","","mooney1","image-keyboard-response","189","376045","0.0-2.0-1.31","JW","2","pretest","true","3530227","null","../img/tt/519tt.jpg","",""
"601","<p></p>","","recognized","html-keyboard-response","190","376647","0.0-2.0-2.31","JW","2","pretest","true","3530227","89","../img/tt/519tt.jpg","y",""
"null","../img/gs/519gs.jpg","","solution","image-keyboard-response","191","378659","0.0-2.0-3.31","JW","2","pretest","true","3530227","null","","",""
"null","../img/tt/519tt.jpg","","mooney2","image-keyboard-response","192","380655","0.0-2.0-4.31","JW","2","pretest","true","3530227","null","","",""
"1805","<p>How strong was your <strong>aha-experience</strong>?</p>","","aha","html-keyboard-response","193","382462","0.0-2.0-5.31","JW","2","pretest","true","3530227","51","../img/tt/519tt.jpg","","3"
"null","<div style=""font-size:60px;""> </div>","","fixation","html-keyboard-response","194","382675","0.0-2.0-0.32","JW","2","pretest","true","3530227","null","","",""
"null","../img/tt/575tt.jpg","","mooney1","image-keyboard-response","195","385692","0.0-2.0-1.32","JW","2","pretest","true","3530227","null","../img/tt/575tt.jpg","",""
"723","<p></p>","","recognized","html-keyboard-response","196","386417","0.0-2.0-2.32","JW","2","pretest","true","3530227","78","../img/tt/575tt.jpg","n",""
"null","../img/gs/575gs.jpg","","solution","image-keyboard-response","197","388440","0.0-2.0-3.32","JW","2","pretest","true","3530227","null","","",""
"null","../img/tt/575tt.jpg","","mooney2","image-keyboard-response","198","390430","0.0-2.0-4.32","JW","2","pretest","true","3530227","null","","",""
"631","<p>How strong was your <strong>aha-experience</strong>?</p>","","aha","html-keyboard-response","199","391063","0.0-2.0-5.32","JW","2","pretest","true","3530227","52","../img/tt/575tt.jpg","","4"
"null","<div style=""font-size:60px;""> </div>","","fixation","html-keyboard-response","200","391275","0.0-2.0-0.33","JW","2","pretest","true","3530227","null","","",""
"null","../img/tt/236tt.jpg","","mooney1","image-keyboard-response","201","394291","0.0-2.0-1.33","JW","2","pretest","true","3530227","null","../img/tt/236tt.jpg","",""
"592","<p></p>","","recognized","html-keyboard-response","202","394886","0.0-2.0-2.33","JW","2","pretest","true","3530227","89","../img/tt/236tt.jpg","y",""
"null","../img/gs/236gs.jpg","","solution","image-keyboard-response","203","396908","0.0-2.0-3.33","JW","2","pretest","true","3530227","null","","",""
"null","../img/tt/236tt.jpg","","mooney2","image-keyboard-response","204","398899","0.0-2.0-4.33","JW","2","pretest","true","3530227","null","","",""
"1690","<p>How strong was your <strong>aha-experience</strong>?</p>","","aha","html-keyboard-response","205","400592","0.0-2.0-5.33","JW","2","pretest","true","3530227","51","../img/tt/236tt.jpg","","3"
"null","<div style=""font-size:60px;""> </div>","","fixation","html-keyboard-response","206","400804","0.0-2.0-0.34","JW","2","pretest","true","3530227","null","","",""
"null","../img/tt/358tt.jpg","","mooney1","image-keyboard-response","207","403819","0.0-2.0-1.34","JW","2","pretest","true","3530227","null","../img/tt/358tt.jpg","",""
"606","<p></p>","","recognized","html-keyboard-response","208","404426","0.0-2.0-2.34","JW","2","pretest","true","3530227","78","../img/tt/358tt.jpg","n",""
"null","../img/gs/358gs.jpg","","solution","image-keyboard-response","209","406450","0.0-2.0-3.34","JW","2","pretest","true","3530227","null","","",""
"null","../img/tt/358tt.jpg","","mooney2","image-keyboard-response","210","408438","0.0-2.0-4.34","JW","2","pretest","true","3530227","null","","",""
"460","<p>How strong was your <strong>aha-experience</strong>?</p>","","aha","html-keyboard-response","211","408900","0.0-2.0-5.34","JW","2","pretest","true","3530227","52","../img/tt/358tt.jpg","","4"
"null","<div style=""font-size:60px;""> </div>","","fixation","html-keyboard-response","212","409103","0.0-2.0-0.35","JW","2","pretest","true","3530227","null","","",""
"null","../img/tt/596tt.jpg","","mooney1","image-keyboard-response","213","412112","0.0-2.0-1.35","JW","2","pretest","true","3530227","null","../img/tt/596tt.jpg","",""
"753","<p></p>","","recognized","html-keyboard-response","214","412868","0.0-2.0-2.35","JW","2","pretest","true","3530227","89","../img/tt/596tt.jpg","y",""
"null","../img/gs/596gs.jpg","","solution","image-keyboard-response","215","414890","0.0-2.0-3.35","JW","2","pretest","true","3530227","null","","",""
"null","../img/tt/596tt.jpg","","mooney2","image-keyboard-response","216","416880","0.0-2.0-4.35","JW","2","pretest","true","3530227","null","","",""
"604","<p>How strong was your <strong>aha-experience</strong>?</p>","","aha","html-keyboard-response","217","417491","0.0-2.0-5.35","JW","2","pretest","true","3530227","52","../img/tt/596tt.jpg","","4"
"null","<div style=""font-size:60px;""> </div>","","fixation","html-keyboard-response","218","417702","0.0-2.0-0.36","JW","2","pretest","true","3530227","null","","",""
"null","../img/tt/454tt.jpg","","mooney1","image-keyboard-response","219","420726","0.0-2.0-1.36","JW","2","pretest","true","3530227","null","../img/tt/454tt.jpg","",""
"512","<p></p>","","recognized","html-keyboard-response","220","421240","0.0-2.0-2.36","JW","2","pretest","true","3530227","89","../img/tt/454tt.jpg","y",""
"null","../img/gs/454gs.jpg","","solution","image-keyboard-response","221","423252","0.0-2.0-3.36","JW","2","pretest","true","3530227","null","","",""
"null","../img/tt/454tt.jpg","","mooney2","image-keyboard-response","222","425249","0.0-2.0-4.36","JW","2","pretest","true","3530227","null","","",""
"2260","<p>How strong was your <strong>aha-experience</strong>?</p>","","aha","html-keyboard-response","223","427511","0.0-2.0-5.36","JW","2","pretest","true","3530227","50","../img/tt/454tt.jpg","","2"
"null","<div style=""font-size:60px;""> </div>","","fixation","html-keyboard-response","224","427723","0.0-2.0-0.37","JW","2","pretest","true","3530227","null","","",""
"null","../img/tt/360tt.jpg","","mooney1","image-keyboard-response","225","430735","0.0-2.0-1.37","JW","2","pretest","true","3530227","null","../img/tt/360tt.jpg","",""
"1076","<p></p>","","recognized","html-keyboard-response","226","431813","0.0-2.0-2.37","JW","2","pretest","true","3530227","78","../img/tt/360tt.jpg","n",""
"null","../img/gs/360gs.jpg","","solution","image-keyboard-response","227","433822","0.0-2.0-3.37","JW","2","pretest","true","3530227","null","","",""
"null","../img/tt/360tt.jpg","","mooney2","image-keyboard-response","228","435824","0.0-2.0-4.37","JW","2","pretest","true","3530227","null","","",""
"1873","<p>How strong was your <strong>aha-experience</strong>?</p>","","aha","html-keyboard-response","229","437698","0.0-2.0-5.37","JW","2","pretest","true","3530227","51","../img/tt/360tt.jpg","","3"
"null","<div style=""font-size:60px;""> </div>","","fixation","html-keyboard-response","230","437909","0.0-2.0-0.38","JW","2","pretest","true","3530227","null","","",""
"null","../img/tt/263tt.jpg","","mooney1","image-keyboard-response","231","440913","0.0-2.0-1.38","JW","2","pretest","true","3530227","null","../img/tt/263tt.jpg","",""
"958","<p></p>","","recognized","html-keyboard-response","232","441872","0.0-2.0-2.38","JW","2","pretest","true","3530227","78","../img/tt/263tt.jpg","n",""
"null","../img/gs/263gs.jpg","","solution","image-keyboard-response","233","443885","0.0-2.0-3.38","JW","2","pretest","true","3530227","null","","",""
"null","../img/tt/263tt.jpg","","mooney2","image-keyboard-response","234","445888","0.0-2.0-4.38","JW","2","pretest","true","3530227","null","","",""
"84","<p>How strong was your <strong>aha-experience</strong>?</p>","","aha","html-keyboard-response","235","445973","0.0-2.0-5.38","JW","2","pretest","true","3530227","51","../img/tt/263tt.jpg","","3"
"null","<div style=""font-size:60px;""> </div>","","fixation","html-keyboard-response","236","446193","0.0-2.0-0.39","JW","2","pretest","true","3530227","null","","",""
"null","../img/tt/1322tt.jpg","","mooney1","image-keyboard-response","237","449202","0.0-2.0-1.39","JW","2","pretest","true","3530227","null","../img/tt/1322tt.jpg","",""
"690","<p></p>","","recognized","html-keyboard-response","238","449893","0.0-2.0-2.39","JW","2","pretest","true","3530227","89","../img/tt/1322tt.jpg","y",""
"null","../img/gs/1322gs.jpg","","solution","image-keyboard-response","239","451906","0.0-2.0-3.39","JW","2","pretest","true","3530227","null","","",""
"null","../img/tt/1322tt.jpg","","mooney2","image-keyboard-response","240","453903","0.0-2.0-4.39","JW","2","pretest","true","3530227","null","","",""
"1421","<p>How strong was your <strong>aha-experience</strong>?</p>","","aha","html-keyboard-response","241","455325","0.0-2.0-5.39","JW","2","pretest","true","3530227","50","../img/tt/1322tt.jpg","","2"
"null","<div style=""font-size:60px;""> </div>","","fixation","html-keyboard-response","242","455537","0.0-2.0-0.40","JW","2","pretest","true","3530227","null","","",""
"null","../img/tt/1352tt.jpg","","mooney1","image-keyboard-response","243","458542","0.0-2.0-1.40","JW","2","pretest","true","3530227","null","../img/tt/1352tt.jpg","",""
"836","<p></p>","","recognized","html-keyboard-response","244","459379","0.0-2.0-2.40","JW","2","pretest","true","3530227","89","../img/tt/1352tt.jpg","y",""
"null","../img/gs/1352gs.jpg","","solution","image-keyboard-response","245","461392","0.0-2.0-3.40","JW","2","pretest","true","3530227","null","","",""
"null","../img/tt/1352tt.jpg","","mooney2","image-keyboard-response","246","463392","0.0-2.0-4.40","JW","2","pretest","true","3530227","null","","",""
"2146","<p>How strong was your <strong>aha-experience</strong>?</p>","","aha","html-keyboard-response","247","465540","0.0-2.0-5.40","JW","2","pretest","true","3530227","54","../img/tt/1352tt.jpg","","6"
"null","<div style=""font-size:60px;""> </div>","","fixation","html-keyboard-response","248","465763","0.0-2.0-0.41","JW","2","pretest","true","3530227","null","","",""
"null","../img/tt/1369tt.jpg","","mooney1","image-keyboard-response","249","468770","0.0-2.0-1.41","JW","2","pretest","true","3530227","null","../img/tt/1369tt.jpg","",""
"1499","<p></p>","","recognized","html-keyboard-response","250","470271","0.0-2.0-2.41","JW","2","pretest","true","3530227","89","../img/tt/1369tt.jpg","y",""
"null","../img/gs/1369gs.jpg","","solution","image-keyboard-response","251","472287","0.0-2.0-3.41","JW","2","pretest","true","3530227","null","","",""
"null","../img/tt/1369tt.jpg","","mooney2","image-keyboard-response","252","474294","0.0-2.0-4.41","JW","2","pretest","true","3530227","null","","",""
"719","<p>How strong was your <strong>aha-experience</strong>?</p>","","aha","html-keyboard-response","253","475016","0.0-2.0-5.41","JW","2","pretest","true","3530227","52","../img/tt/1369tt.jpg","","4"
"null","<div style=""font-size:60px;""> </div>","","fixation","html-keyboard-response","254","475228","0.0-2.0-0.42","JW","2","pretest","true","3530227","null","","",""
"null","../img/tt/526tt.jpg","","mooney1","image-keyboard-response","255","478241","0.0-2.0-1.42","JW","2","pretest","true","3530227","null","../img/tt/526tt.jpg","",""
"582","<p></p>","","recognized","html-keyboard-response","256","478826","0.0-2.0-2.42","JW","2","pretest","true","3530227","89","../img/tt/526tt.jpg","y",""
"null","../img/gs/526gs.jpg","","solution","image-keyboard-response","257","480840","0.0-2.0-3.42","JW","2","pretest","true","3530227","null","","",""
"null","../img/tt/526tt.jpg","","mooney2","image-keyboard-response","258","482836","0.0-2.0-4.42","JW","2","pretest","true","3530227","null","","",""
"575","<p>How strong was your <strong>aha-experience</strong>?</p>","","aha","html-keyboard-response","259","483413","0.0-2.0-5.42","JW","2","pretest","true","3530227","54","../img/tt/526tt.jpg","","6"
"null","<div style=""font-size:60px;""> </div>","","fixation","html-keyboard-response","260","483623","0.0-2.0-0.43","JW","2","pretest","true","3530227","null","","",""
"null","../img/tt/282tt.jpg","","mooney1","image-keyboard-response","261","486641","0.0-2.0-1.43","JW","2","pretest","true","3530227","null","../img/tt/282tt.jpg","",""
"622","<p></p>","","recognized","html-keyboard-response","262","487265","0.0-2.0-2.43","JW","2","pretest","true","3530227","89","../img/tt/282tt.jpg","y",""
"null","../img/gs/282gs.jpg","","solution","image-keyboard-response","263","489279","0.0-2.0-3.43","JW","2","pretest","true","3530227","null","","",""
"null","../img/tt/282tt.jpg","","mooney2","image-keyboard-response","264","491279","0.0-2.0-4.43","JW","2","pretest","true","3530227","null","","",""
"790","<p>How strong was your <strong>aha-experience</strong>?</p>","","aha","html-keyboard-response","265","492071","0.0-2.0-5.43","JW","2","pretest","true","3530227","52","../img/tt/282tt.jpg","","4"
"null","<div style=""font-size:60px;""> </div>","","fixation","html-keyboard-response","266","492294","0.0-2.0-0.44","JW","2","pretest","true","3530227","null","","",""
"null","../img/tt/513tt.jpg","","mooney1","image-keyboard-response","267","495300","0.0-2.0-1.44","JW","2","pretest","true","3530227","null","../img/tt/513tt.jpg","",""
"737","<p></p>","","recognized","html-keyboard-response","268","496040","0.0-2.0-2.44","JW","2","pretest","true","3530227","78","../img/tt/513tt.jpg","n",""
"null","../img/gs/513gs.jpg","","solution","image-keyboard-response","269","498048","0.0-2.0-3.44","JW","2","pretest","true","3530227","null","","",""
"null","../img/tt/513tt.jpg","","mooney2","image-keyboard-response","270","500044","0.0-2.0-4.44","JW","2","pretest","true","3530227","null","","",""
"948","<p>How strong was your <strong>aha-experience</strong>?</p>","","aha","html-keyboard-response","271","500995","0.0-2.0-5.44","JW","2","pretest","true","3530227","54","../img/tt/513tt.jpg","","6"
"null","<div style=""font-size:60px;""> </div>","","fixation","html-keyboard-response","272","501206","0.0-2.0-0.45","JW","2","pretest","true","3530227","null","","",""
"null","../img/tt/503tt.jpg","","mooney1","image-keyboard-response","273","504222","0.0-2.0-1.45","JW","2","pretest","true","3530227","null","../img/tt/503tt.jpg","",""
"500","<p></p>","","recognized","html-keyboard-response","274","504725","0.0-2.0-2.45","JW","2","pretest","true","3530227","89","../img/tt/503tt.jpg","y",""
"null","../img/gs/503gs.jpg","","solution","image-keyboard-response","275","506737","0.0-2.0-3.45","JW","2","pretest","true","3530227","null","","",""
"null","../img/tt/503tt.jpg","","mooney2","image-keyboard-response","276","508745","0.0-2.0-4.45","JW","2","pretest","true","3530227","null","","",""
"1252","<p>How strong was your <strong>aha-experience</strong>?</p>","","aha","html-keyboard-response","277","509999","0.0-2.0-5.45","JW","2","pretest","true","3530227","51","../img/tt/503tt.jpg","","3"
"null","<div style=""font-size:60px;""> </div>","","fixation","html-keyboard-response","278","510211","0.0-2.0-0.46","JW","2","pretest","true","3530227","null","","",""
"null","../img/tt/578tt.jpg","","mooney1","image-keyboard-response","279","513226","0.0-2.0-1.46","JW","2","pretest","true","3530227","null","../img/tt/578tt.jpg","",""
"3351","<p></p>","","recognized","html-keyboard-response","280","516580","0.0-2.0-2.46","JW","2","pretest","true","3530227","78","../img/tt/578tt.jpg","n",""
"null","../img/gs/578gs.jpg","","solution","image-keyboard-response","281","518593","0.0-2.0-3.46","JW","2","pretest","true","3530227","null","","",""
"null","../img/tt/578tt.jpg","","mooney2","image-keyboard-response","282","520591","0.0-2.0-4.46","JW","2","pretest","true","3530227","null","","",""
"1272","<p>How strong was your <strong>aha-experience</strong>?</p>","","aha","html-keyboard-response","283","521864","0.0-2.0-5.46","JW","2","pretest","true","3530227","52","../img/tt/578tt.jpg","","4"
"null","<div style=""font-size:60px;""> </div>","","fixation","html-keyboard-response","284","522074","0.0-2.0-0.47","JW","2","pretest","true","3530227","null","","",""
"null","../img/tt/416tt.jpg","","mooney1","image-keyboard-response","285","525088","0.0-2.0-1.47","JW","2","pretest","true","3530227","null","../img/tt/416tt.jpg","",""
"1744","<p></p>","","recognized","html-keyboard-response","286","526834","0.0-2.0-2.47","JW","2","pretest","true","3530227","89","../img/tt/416tt.jpg","y",""
"null","../img/gs/416gs.jpg","","solution","image-keyboard-response","287","528854","0.0-2.0-3.47","JW","2","pretest","true","3530227","null","","",""
"null","../img/tt/416tt.jpg","","mooney2","image-keyboard-response","288","530842","0.0-2.0-4.47","JW","2","pretest","true","3530227","null","","",""
"638","<p>How strong was your <strong>aha-experience</strong>?</p>","","aha","html-keyboard-response","289","531482","0.0-2.0-5.47","JW","2","pretest","true","3530227","53","../img/tt/416tt.jpg","","5"
"null","<div style=""font-size:60px;""> </div>","","fixation","html-keyboard-response","290","531693","0.0-2.0-0.48","JW","2","pretest","true","3530227","null","","",""
"null","../img/tt/1340tt.jpg","","mooney1","image-keyboard-response","291","534718","0.0-2.0-1.48","JW","2","pretest","true","3530227","null","../img/tt/1340tt.jpg","",""
"1716","<p></p>","","recognized","html-keyboard-response","292","536435","0.0-2.0-2.48","JW","2","pretest","true","3530227","89","../img/tt/1340tt.jpg","y",""
"null","../img/gs/1340gs.jpg","","solution","image-keyboard-response","293","538449","0.0-2.0-3.48","JW","2","pretest","true","3530227","null","","",""
"null","../img/tt/1340tt.jpg","","mooney2","image-keyboard-response","294","540448","0.0-2.0-4.48","JW","2","pretest","true","3530227","null","","",""
"611","<p>How strong was your <strong>aha-experience</strong>?</p>","","aha","html-keyboard-response","295","541061","0.0-2.0-5.48","JW","2","pretest","true","3530227","51","../img/tt/1340tt.jpg","","3"
"null","<div style=""font-size:60px;""> </div>","","fixation","html-keyboard-response","296","541274","0.0-2.0-0.49","JW","2","pretest","true","3530227","null","","",""
"null","../img/tt/327tt.jpg","","mooney1","image-keyboard-response","297","544290","0.0-2.0-1.49","JW","2","pretest","true","3530227","null","../img/tt/327tt.jpg","",""
"812","<p></p>","","recognized","html-keyboard-response","298","545104","0.0-2.0-2.49","JW","2","pretest","true","3530227","89","../img/tt/327tt.jpg","y",""
"null","../img/gs/327gs.jpg","","solution","image-keyboard-response","299","547123","0.0-2.0-3.49","JW","2","pretest","true","3530227","null","","",""
"null","../img/tt/327tt.jpg","","mooney2","image-keyboard-response","300","549120","0.0-2.0-4.49","JW","2","pretest","true","3530227","null","","",""
"835","<p>How strong was your <strong>aha-experience</strong>?</p>","","aha","html-keyboard-response","301","549956","0.0-2.0-5.49","JW","2","pretest","true","3530227","54","../img/tt/327tt.jpg","","6"
"null","<div style=""font-size:60px;""> </div>","","fixation","html-keyboard-response","302","550167","0.0-2.0-0.50","JW","2","pretest","true","3530227","null","","",""
"null","../img/tt/552tt.jpg","","mooney1","image-keyboard-response","303","553181","0.0-2.0-1.50","JW","2","pretest","true","3530227","null","../img/tt/552tt.jpg","",""
"578","<p></p>","","recognized","html-keyboard-response","304","553762","0.0-2.0-2.50","JW","2","pretest","true","3530227","89","../img/tt/552tt.jpg","y",""
"null","../img/gs/552gs.jpg","","solution","image-keyboard-response","305","555774","0.0-2.0-3.50","JW","2","pretest","true","3530227","null","","",""
"null","../img/tt/552tt.jpg","","mooney2","image-keyboard-response","306","557772","0.0-2.0-4.50","JW","2","pretest","true","3530227","null","","",""
"577","<p>How strong was your <strong>aha-experience</strong>?</p>","","aha","html-keyboard-response","307","558351","0.0-2.0-5.50","JW","2","pretest","true","3530227","49","../img/tt/552tt.jpg","","1"
"null","<div style=""font-size:60px;""> </div>","","fixation","html-keyboard-response","308","558563","0.0-2.0-0.51","JW","2","pretest","true","3530227","null","","",""
"null","../img/tt/137tt.jpg","","mooney1","image-keyboard-response","309","561577","0.0-2.0-1.51","JW","2","pretest","true","3530227","null","../img/tt/137tt.jpg","",""
"544","<p></p>","","recognized","html-keyboard-response","310","562124","0.0-2.0-2.51","JW","2","pretest","true","3530227","89","../img/tt/137tt.jpg","y",""
"null","../img/gs/137gs.jpg","","solution","image-keyboard-response","311","564137","0.0-2.0-3.51","JW","2","pretest","true","3530227","null","","",""
"null","../img/tt/137tt.jpg","","mooney2","image-keyboard-response","312","566135","0.0-2.0-4.51","JW","2","pretest","true","3530227","null","","",""
"640","<p>How strong was your <strong>aha-experience</strong>?</p>","","aha","html-keyboard-response","313","566778","0.0-2.0-5.51","JW","2","pretest","true","3530227","50","../img/tt/137tt.jpg","","2"
"null","<div style=""font-size:60px;""> </div>","","fixation","html-keyboard-response","314","567001","0.0-2.0-0.52","JW","2","pretest","true","3530227","null","","",""
"null","../img/tt/189tt.jpg","","mooney1","image-keyboard-response","315","570011","0.0-2.0-1.52","JW","2","pretest","true","3530227","null","../img/tt/189tt.jpg","",""
"994","<p></p>","","recognized","html-keyboard-response","316","571009","0.0-2.0-2.52","JW","2","pretest","true","3530227","89","../img/tt/189tt.jpg","y",""
"null","../img/gs/189gs.jpg","","solution","image-keyboard-response","317","573022","0.0-2.0-3.52","JW","2","pretest","true","3530227","null","","",""
"null","../img/tt/189tt.jpg","","mooney2","image-keyboard-response","318","575019","0.0-2.0-4.52","JW","2","pretest","true","3530227","null","","",""
"914","<p>How strong was your <strong>aha-experience</strong>?</p>","","aha","html-keyboard-response","319","575936","0.0-2.0-5.52","JW","2","pretest","true","3530227","54","../img/tt/189tt.jpg","","6"
"null","<div style=""font-size:60px;""> </div>","","fixation","html-keyboard-response","320","576147","0.0-2.0-0.53","JW","2","pretest","true","3530227","null","","",""
"null","../img/tt/307tt.jpg","","mooney1","image-keyboard-response","321","579149","0.0-2.0-1.53","JW","2","pretest","true","3530227","null","../img/tt/307tt.jpg","",""
"644","<p></p>","","recognized","html-keyboard-response","322","579795","0.0-2.0-2.53","JW","2","pretest","true","3530227","78","../img/tt/307tt.jpg","n",""
"null","../img/gs/307gs.jpg","","solution","image-keyboard-response","323","581815","0.0-2.0-3.53","JW","2","pretest","true","3530227","null","","",""
"null","../img/tt/307tt.jpg","","mooney2","image-keyboard-response","324","583805","0.0-2.0-4.53","JW","2","pretest","true","3530227","null","","",""
"594","<p>How strong was your <strong>aha-experience</strong>?</p>","","aha","html-keyboard-response","325","584400","0.0-2.0-5.53","JW","2","pretest","true","3530227","54","../img/tt/307tt.jpg","","6"
"null","<div style=""font-size:60px;""> </div>","","fixation","html-keyboard-response","326","584611","0.0-2.0-0.54","JW","2","pretest","true","3530227","null","","",""
"null","../img/tt/197tt.jpg","","mooney1","image-keyboard-response","327","587626","0.0-2.0-1.54","JW","2","pretest","true","3530227","null","../img/tt/197tt.jpg","",""
"885","<p></p>","","recognized","html-keyboard-response","328","588513","0.0-2.0-2.54","JW","2","pretest","true","3530227","89","../img/tt/197tt.jpg","y",""
"null","../img/gs/197gs.jpg","","solution","image-keyboard-response","329","590528","0.0-2.0-3.54","JW","2","pretest","true","3530227","null","","",""
"null","../img/tt/197tt.jpg","","mooney2","image-keyboard-response","330","592529","0.0-2.0-4.54","JW","2","pretest","true","3530227","null","","",""
"1008","<p>How strong was your <strong>aha-experience</strong>?</p>","","aha","html-keyboard-response","331","593539","0.0-2.0-5.54","JW","2","pretest","true","3530227","51","../img/tt/197tt.jpg","","3"
"null","<div style=""font-size:60px;""> </div>","","fixation","html-keyboard-response","332","593750","0.0-2.0-0.55","JW","2","pretest","true","3530227","null","","",""
"null","../img/tt/494tt.jpg","","mooney1","image-keyboard-response","333","596760","0.0-2.0-1.55","JW","2","pretest","true","3530227","null","../img/tt/494tt.jpg","",""
"630","<p></p>","","recognized","html-keyboard-response","334","597392","0.0-2.0-2.55","JW","2","pretest","true","3530227","78","../img/tt/494tt.jpg","n",""
"null","../img/gs/494gs.jpg","","solution","image-keyboard-response","335","599406","0.0-2.0-3.55","JW","2","pretest","true","3530227","null","","",""
"null","../img/tt/494tt.jpg","","mooney2","image-keyboard-response","336","601405","0.0-2.0-4.55","JW","2","pretest","true","3530227","null","","",""
"593","<p>How strong was your <strong>aha-experience</strong>?</p>","","aha","html-keyboard-response","337","602000","0.0-2.0-5.55","JW","2","pretest","true","3530227","54","../img/tt/494tt.jpg","","6"
"null","<div style=""font-size:60px;""> </div>","","fixation","html-keyboard-response","338","602211","0.0-2.0-0.56","JW","2","pretest","true","3530227","null","","",""
"null","../img/tt/350tt.jpg","","mooney1","image-keyboard-response","339","605226","0.0-2.0-1.56","JW","2","pretest","true","3530227","null","../img/tt/350tt.jpg","",""
"701","<p></p>","","recognized","html-keyboard-response","340","605929","0.0-2.0-2.56","JW","2","pretest","true","3530227","78","../img/tt/350tt.jpg","n",""
"null","../img/gs/350gs.jpg","","solution","image-keyboard-response","341","607943","0.0-2.0-3.56","JW","2","pretest","true","3530227","null","","",""
"null","../img/tt/350tt.jpg","","mooney2","image-keyboard-response","342","609948","0.0-2.0-4.56","JW","2","pretest","true","3530227","null","","",""
"819","<p>How strong was your <strong>aha-experience</strong>?</p>","","aha","html-keyboard-response","343","610768","0.0-2.0-5.56","JW","2","pretest","true","3530227","51","../img/tt/350tt.jpg","","3"
"null","<div style=""font-size:60px;""> </div>","","fixation","html-keyboard-response","344","610992","0.0-2.0-0.57","JW","2","pretest","true","3530227","null","","",""
"null","../img/tt/208tt.jpg","","mooney1","image-keyboard-response","345","613999","0.0-2.0-1.57","JW","2","pretest","true","3530227","null","../img/tt/208tt.jpg","",""
"565","<p></p>","","recognized","html-keyboard-response","346","614565","0.0-2.0-2.57","JW","2","pretest","true","3530227","89","../img/tt/208tt.jpg","y",""
"null","../img/gs/208gs.jpg","","solution","image-keyboard-response","347","616579","0.0-2.0-3.57","JW","2","pretest","true","3530227","null","","",""
"null","../img/tt/208tt.jpg","","mooney2","image-keyboard-response","348","618578","0.0-2.0-4.57","JW","2","pretest","true","3530227","null","","",""
"1596","<p>How strong was your <strong>aha-experience</strong>?</p>","","aha","html-keyboard-response","349","620178","0.0-2.0-5.57","JW","2","pretest","true","3530227","50","../img/tt/208tt.jpg","","2"
"null","<div style=""font-size:60px;""> </div>","","fixation","html-keyboard-response","350","620390","0.0-2.0-0.58","JW","2","pretest","true","3530227","null","","",""
"null","../img/tt/425tt.jpg","","mooney1","image-keyboard-response","351","623407","0.0-2.0-1.58","JW","2","pretest","true","3530227","null","../img/tt/425tt.jpg","",""
"1480","<p></p>","","recognized","html-keyboard-response","352","624889","0.0-2.0-2.58","JW","2","pretest","true","3530227","78","../img/tt/425tt.jpg","n",""
"null","../img/gs/425gs.jpg","","solution","image-keyboard-response","353","626914","0.0-2.0-3.58","JW","2","pretest","true","3530227","null","","",""
"null","../img/tt/425tt.jpg","","mooney2","image-keyboard-response","354","628902","0.0-2.0-4.58","JW","2","pretest","true","3530227","null","","",""
"857","<p>How strong was your <strong>aha-experience</strong>?</p>","","aha","html-keyboard-response","355","629761","0.0-2.0-5.58","JW","2","pretest","true","3530227","51","../img/tt/425tt.jpg","","3"
"null","<div style=""font-size:60px;""> </div>","","fixation","html-keyboard-response","356","629973","0.0-2.0-0.59","JW","2","pretest","true","3530227","null","","",""
"null","../img/tt/409tt.jpg","","mooney1","image-keyboard-response","357","632986","0.0-2.0-1.59","JW","2","pretest","true","3530227","null","../img/tt/409tt.jpg","",""
"622","<p></p>","","recognized","html-keyboard-response","358","633610","0.0-2.0-2.59","JW","2","pretest","true","3530227","89","../img/tt/409tt.jpg","y",""
"null","../img/gs/409gs.jpg","","solution","image-keyboard-response","359","635625","0.0-2.0-3.59","JW","2","pretest","true","3530227","null","","",""
"null","../img/tt/409tt.jpg","","mooney2","image-keyboard-response","360","637622","0.0-2.0-4.59","JW","2","pretest","true","3530227","null","","",""
"1823","<p>How strong was your <strong>aha-experience</strong>?</p>","","aha","html-keyboard-response","361","639448","0.0-2.0-5.59","JW","2","pretest","true","3530227","50","../img/tt/409tt.jpg","","2"
"null","<div style=""font-size:60px;""> </div>","","fixation","html-keyboard-response","362","639659","0.0-2.0-0.60","JW","2","pretest","true","3530227","null","","",""
"null","../img/tt/188tt.jpg","","mooney1","image-keyboard-response","363","642678","0.0-2.0-1.60","JW","2","pretest","true","3530227","null","../img/tt/188tt.jpg","",""
"822","<p></p>","","recognized","html-keyboard-response","364","643503","0.0-2.0-2.60","JW","2","pretest","true","3530227","78","../img/tt/188tt.jpg","n",""
"null","../img/gs/188gs.jpg","","solution","image-keyboard-response","365","645514","0.0-2.0-3.60","JW","2","pretest","true","3530227","null","","",""
"null","../img/tt/188tt.jpg","","mooney2","image-keyboard-response","366","647511","0.0-2.0-4.60","JW","2","pretest","true","3530227","null","","",""
"1559","<p>How strong was your <strong>aha-experience</strong>?</p>","","aha","html-keyboard-response","367","649073","0.0-2.0-5.60","JW","2","pretest","true","3530227","51","../img/tt/188tt.jpg","","3"
"null","<div style=""font-size:60px;""> </div>","","fixation","html-keyboard-response","368","649283","0.0-2.0-0.61","JW","2","pretest","true","3530227","null","","",""
"null","../img/tt/599tt.jpg","","mooney1","image-keyboard-response","369","652303","0.0-2.0-1.61","JW","2","pretest","true","3530227","null","../img/tt/599tt.jpg","",""
"715","<p></p>","","recognized","html-keyboard-response","370","653020","0.0-2.0-2.61","JW","2","pretest","true","3530227","89","../img/tt/599tt.jpg","y",""
"null","../img/gs/599gs.jpg","","solution","image-keyboard-response","371","655032","0.0-2.0-3.61","JW","2","pretest","true","3530227","null","","",""
"null","../img/tt/599tt.jpg","","mooney2","image-keyboard-response","372","657029","0.0-2.0-4.61","JW","2","pretest","true","3530227","null","","",""
"678","<p>How strong was your <strong>aha-experience</strong>?</p>","","aha","html-keyboard-response","373","657708","0.0-2.0-5.61","JW","2","pretest","true","3530227","49","../img/tt/599tt.jpg","","1"
"null","<div style=""font-size:60px;""> </div>","","fixation","html-keyboard-response","374","657919","0.0-2.0-0.62","JW","2","pretest","true","3530227","null","","",""
"null","../img/tt/1359tt.jpg","","mooney1","image-keyboard-response","375","660923","0.0-2.0-1.62","JW","2","pretest","true","3530227","null","../img/tt/1359tt.jpg","",""
"1064","<p></p>","","recognized","html-keyboard-response","376","661990","0.0-2.0-2.62","JW","2","pretest","true","3530227","78","../img/tt/1359tt.jpg","n",""
"null","../img/gs/1359gs.jpg","","solution","image-keyboard-response","377","664013","0.0-2.0-3.62","JW","2","pretest","true","3530227","null","","",""
"null","../img/tt/1359tt.jpg","","mooney2","image-keyboard-response","378","666001","0.0-2.0-4.62","JW","2","pretest","true","3530227","null","","",""
"2687","<p>How strong was your <strong>aha-experience</strong>?</p>","","aha","html-keyboard-response","379","668690","0.0-2.0-5.62","JW","2","pretest","true","3530227","51","../img/tt/1359tt.jpg","","3"
"null","<div style=""font-size:60px;""> </div>","","fixation","html-keyboard-response","380","668903","0.0-2.0-0.63","JW","2","pretest","true","3530227","null","","",""
"null","../img/tt/540tt.jpg","","mooney1","image-keyboard-response","381","671924","0.0-2.0-1.63","JW","2","pretest","true","3530227","null","../img/tt/540tt.jpg","",""
"1080","<p></p>","","recognized","html-keyboard-response","382","673006","0.0-2.0-2.63","JW","2","pretest","true","3530227","78","../img/tt/540tt.jpg","n",""
"null","../img/gs/540gs.jpg","","solution","image-keyboard-response","383","675018","0.0-2.0-3.63","JW","2","pretest","true","3530227","null","","",""
"null","../img/tt/540tt.jpg","","mooney2","image-keyboard-response","384","677014","0.0-2.0-4.63","JW","2","pretest","true","3530227","null","","",""
"786","<p>How strong was your <strong>aha-experience</strong>?</p>","","aha","html-keyboard-response","385","677800","0.0-2.0-5.63","JW","2","pretest","true","3530227","52","../img/tt/540tt.jpg","","4"
"null","<div style=""font-size:60px;""> </div>","","fixation","html-keyboard-response","386","678011","0.0-2.0-0.64","JW","2","pretest","true","3530227","null","","",""
"null","../img/tt/522tt.jpg","","mooney1","image-keyboard-response","387","681027","0.0-2.0-1.64","JW","2","pretest","true","3530227","null","../img/tt/522tt.jpg","",""
"676","<p></p>","","recognized","html-keyboard-response","388","681705","0.0-2.0-2.64","JW","2","pretest","true","3530227","89","../img/tt/522tt.jpg","y",""
"null","../img/gs/522gs.jpg","","solution","image-keyboard-response","389","683717","0.0-2.0-3.64","JW","2","pretest","true","3530227","null","","",""
"null","../img/tt/522tt.jpg","","mooney2","image-keyboard-response","390","685722","0.0-2.0-4.64","JW","2","pretest","true","3530227","null","","",""
"780","<p>How strong was your <strong>aha-experience</strong>?</p>","","aha","html-keyboard-response","391","686504","0.0-2.0-5.64","JW","2","pretest","true","3530227","54","../img/tt/522tt.jpg","","6"
"null","<div style=""font-size:60px;""> </div>","","fixation","html-keyboard-response","392","686715","0.0-2.0-0.65","JW","2","pretest","true","3530227","null","","",""
"null","../img/tt/140tt.jpg","","mooney1","image-keyboard-response","393","689733","0.0-2.0-1.65","JW","2","pretest","true","3530227","null","../img/tt/140tt.jpg","",""
"1143","<p></p>","","recognized","html-keyboard-response","394","690878","0.0-2.0-2.65","JW","2","pretest","true","3530227","78","../img/tt/140tt.jpg","n",""
"null","../img/gs/140gs.jpg","","solution","image-keyboard-response","395","692891","0.0-2.0-3.65","JW","2","pretest","true","3530227","null","","",""
"null","../img/tt/140tt.jpg","","mooney2","image-keyboard-response","396","694889","0.0-2.0-4.65","JW","2","pretest","true","3530227","null","","",""
"632","<p>How strong was your <strong>aha-experience</strong>?</p>","","aha","html-keyboard-response","397","695523","0.0-2.0-5.65","JW","2","pretest","true","3530227","55","../img/tt/140tt.jpg","","7"
"null","<div style=""font-size:60px;""> </div>","","fixation","html-keyboard-response","398","695734","0.0-2.0-0.66","JW","2","pretest","true","3530227","null","","",""
"null","../img/tt/300tt.jpg","","mooney1","image-keyboard-response","399","698748","0.0-2.0-1.66","JW","2","pretest","true","3530227","null","../img/tt/300tt.jpg","",""
"1246","<p></p>","","recognized","html-keyboard-response","400","699997","0.0-2.0-2.66","JW","2","pretest","true","3530227","78","../img/tt/300tt.jpg","n",""
"null","../img/gs/300gs.jpg","","solution","image-keyboard-response","401","702010","0.0-2.0-3.66","JW","2","pretest","true","3530227","null","","",""
"null","../img/tt/300tt.jpg","","mooney2","image-keyboard-response","402","704012","0.0-2.0-4.66","JW","2","pretest","true","3530227","null","","",""
"833","<p>How strong was your <strong>aha-experience</strong>?</p>","","aha","html-keyboard-response","403","704847","0.0-2.0-5.66","JW","2","pretest","true","3530227","55","../img/tt/300tt.jpg","","7"
"null","<div style=""font-size:60px;""> </div>","","fixation","html-keyboard-response","404","705059","0.0-2.0-0.67","JW","2","pretest","true","3530227","null","","",""
"null","../img/tt/460tt.jpg","","mooney1","image-keyboard-response","405","708076","0.0-2.0-1.67","JW","2","pretest","true","3530227","null","../img/tt/460tt.jpg","",""
"567","<p></p>","","recognized","html-keyboard-response","406","708644","0.0-2.0-2.67","JW","2","pretest","true","3530227","78","../img/tt/460tt.jpg","n",""
"null","../img/gs/460gs.jpg","","solution","image-keyboard-response","407","710666","0.0-2.0-3.67","JW","2","pretest","true","3530227","null","","",""
"null","../img/tt/460tt.jpg","","mooney2","image-keyboard-response","408","712654","0.0-2.0-4.67","JW","2","pretest","true","3530227","null","","",""
"694","<p>How strong was your <strong>aha-experience</strong>?</p>","","aha","html-keyboard-response","409","713350","0.0-2.0-5.67","JW","2","pretest","true","3530227","53","../img/tt/460tt.jpg","","5"
"null","<div style=""font-size:60px;""> </div>","","fixation","html-keyboard-response","410","713560","0.0-2.0-0.68","JW","2","pretest","true","3530227","null","","",""
"null","../img/tt/130tt.jpg","","mooney1","image-keyboard-response","411","716576","0.0-2.0-1.68","JW","2","pretest","true","3530227","null","../img/tt/130tt.jpg","",""
"503","<p></p>","","recognized","html-keyboard-response","412","717080","0.0-2.0-2.68","JW","2","pretest","true","3530227","89","../img/tt/130tt.jpg","y",""
"null","../img/gs/130gs.jpg","","solution","image-keyboard-response","413","719101","0.0-2.0-3.68","JW","2","pretest","true","3530227","null","","",""
"null","../img/tt/130tt.jpg","","mooney2","image-keyboard-response","414","721091","0.0-2.0-4.68","JW","2","pretest","true","3530227","null","","",""
"1607","<p>How strong was your <strong>aha-experience</strong>?</p>","","aha","html-keyboard-response","415","722701","0.0-2.0-5.68","JW","2","pretest","true","3530227","49","../img/tt/130tt.jpg","","1"
"null","<div style=""font-size:60px;""> </div>","","fixation","html-keyboard-response","416","722915","0.0-2.0-0.69","JW","2","pretest","true","3530227","null","","",""
"null","../img/tt/334tt.jpg","","mooney1","image-keyboard-response","417","725932","0.0-2.0-1.69","JW","2","pretest","true","3530227","null","../img/tt/334tt.jpg","",""
"565","<p></p>","","recognized","html-keyboard-response","418","726500","0.0-2.0-2.69","JW","2","pretest","true","3530227","89","../img/tt/334tt.jpg","y",""
"null","../img/gs/334gs.jpg","","solution","image-keyboard-response","419","728511","0.0-2.0-3.69","JW","2","pretest","true","3530227","null","","",""
"null","../img/tt/334tt.jpg","","mooney2","image-keyboard-response","420","730511","0.0-2.0-4.69","JW","2","pretest","true","3530227","null","","",""
"547","<p>How strong was your <strong>aha-experience</strong>?</p>","","aha","html-keyboard-response","421","731061","0.0-2.0-5.69","JW","2","pretest","true","3530227","49","../img/tt/334tt.jpg","","1"
"null","<div style=""font-size:60px;""> </div>","","fixation","html-keyboard-response","422","731288","0.0-2.0-0.70","JW","2","pretest","true","3530227","null","","",""
"null","../img/tt/424tt.jpg","","mooney1","image-keyboard-response","423","734296","0.0-2.0-1.70","JW","2","pretest","true","3530227","null","../img/tt/424tt.jpg","",""
"590","<p></p>","","recognized","html-keyboard-response","424","734888","0.0-2.0-2.70","JW","2","pretest","true","3530227","89","../img/tt/424tt.jpg","y",""
"null","../img/gs/424gs.jpg","","solution","image-keyboard-response","425","736903","0.0-2.0-3.70","JW","2","pretest","true","3530227","null","","",""
"null","../img/tt/424tt.jpg","","mooney2","image-keyboard-response","426","738900","0.0-2.0-4.70","JW","2","pretest","true","3530227","null","","",""
"580","<p>How strong was your <strong>aha-experience</strong>?</p>","","aha","html-keyboard-response","427","739482","0.0-2.0-5.70","JW","2","pretest","true","3530227","52","../img/tt/424tt.jpg","","4"
"null","<div style=""font-size:60px;""> </div>","","fixation","html-keyboard-response","428","739694","0.0-2.0-0.71","JW","2","pretest","true","3530227","null","","",""
"null","../img/tt/205tt.jpg","","mooney1","image-keyboard-response","429","742707","0.0-2.0-1.71","JW","2","pretest","true","3530227","null","../img/tt/205tt.jpg","",""
"666","<p></p>","","recognized","html-keyboard-response","430","743376","0.0-2.0-2.71","JW","2","pretest","true","3530227","89","../img/tt/205tt.jpg","y",""
"null","../img/gs/205gs.jpg","","solution","image-keyboard-response","431","745390","0.0-2.0-3.71","JW","2","pretest","true","3530227","null","","",""
"null","../img/tt/205tt.jpg","","mooney2","image-keyboard-response","432","747387","0.0-2.0-4.71","JW","2","pretest","true","3530227","null","","",""
"1876","<p>How strong was your <strong>aha-experience</strong>?</p>","","aha","html-keyboard-response","433","749266","0.0-2.0-5.71","JW","2","pretest","true","3530227","50","../img/tt/205tt.jpg","","2"
"null","<div style=""font-size:60px;""> </div>","","fixation","html-keyboard-response","434","749477","0.0-2.0-0.72","JW","2","pretest","true","3530227","null","","",""
"null","../img/tt/274tt.jpg","","mooney1","image-keyboard-response","435","752494","0.0-2.0-1.72","JW","2","pretest","true","3530227","null","../img/tt/274tt.jpg","",""
"856","<p></p>","","recognized","html-keyboard-response","436","753351","0.0-2.0-2.72","JW","2","pretest","true","3530227","89","../img/tt/274tt.jpg","y",""
"null","../img/gs/274gs.jpg","","solution","image-keyboard-response","437","755364","0.0-2.0-3.72","JW","2","pretest","true","3530227","null","","",""
"null","../img/tt/274tt.jpg","","mooney2","image-keyboard-response","438","757359","0.0-2.0-4.72","JW","2","pretest","true","3530227","null","","",""
"599","<p>How strong was your <strong>aha-experience</strong>?</p>","","aha","html-keyboard-response","439","757960","0.0-2.0-5.72","JW","2","pretest","true","3530227","50","../img/tt/274tt.jpg","","2"
"null","<div style=""font-size:60px;""> </div>","","fixation","html-keyboard-response","440","758171","0.0-2.0-0.73","JW","2","pretest","true","3530227","null","","",""
"null","../img/tt/1320tt.jpg","","mooney1","image-keyboard-response","441","761174","0.0-2.0-1.73","JW","2","pretest","true","3530227","null","../img/tt/1320tt.jpg","",""
"613","<p></p>","","recognized","html-keyboard-response","442","761790","0.0-2.0-2.73","JW","2","pretest","true","3530227","89","../img/tt/1320tt.jpg","y",""
"null","../img/gs/1320gs.jpg","","solution","image-keyboard-response","443","763804","0.0-2.0-3.73","JW","2","pretest","true","3530227","null","","",""
"null","../img/tt/1320tt.jpg","","mooney2","image-keyboard-response","444","765799","0.0-2.0-4.73","JW","2","pretest","true","3530227","null","","",""
"1653","<p>How strong was your <strong>aha-experience</strong>?</p>","","aha","html-keyboard-response","445","767455","0.0-2.0-5.73","JW","2","pretest","true","3530227","50","../img/tt/1320tt.jpg","","2"
"null","<div style=""font-size:60px;""> </div>","","fixation","html-keyboard-response","446","767667","0.0-2.0-0.74","JW","2","pretest","true","3530227","null","","",""
"null","../img/tt/1357tt.jpg","","mooney1","image-keyboard-response","447","770685","0.0-2.0-1.74","JW","2","pretest","true","3530227","null","../img/tt/1357tt.jpg","",""
"687","<p></p>","","recognized","html-keyboard-response","448","771374","0.0-2.0-2.74","JW","2","pretest","true","3530227","78","../img/tt/1357tt.jpg","n",""
"null","../img/gs/1357gs.jpg","","solution","image-keyboard-response","449","773387","0.0-2.0-3.74","JW","2","pretest","true","3530227","null","","",""
"null","../img/tt/1357tt.jpg","","mooney2","image-keyboard-response","450","775384","0.0-2.0-4.74","JW","2","pretest","true","3530227","null","","",""
"1942","<p>How strong was your <strong>aha-experience</strong>?</p>","","aha","html-keyboard-response","451","777328","0.0-2.0-5.74","JW","2","pretest","true","3530227","51","../img/tt/1357tt.jpg","","3"
"null","<div style=""font-size:60px;""> </div>","","fixation","html-keyboard-response","452","777540","0.0-2.0-0.75","JW","2","pretest","true","3530227","null","","",""
"null","../img/tt/495tt.jpg","","mooney1","image-keyboard-response","453","780552","0.0-2.0-1.75","JW","2","pretest","true","3530227","null","../img/tt/495tt.jpg","",""
"768","<p></p>","","recognized","html-keyboard-response","454","781322","0.0-2.0-2.75","JW","2","pretest","true","3530227","89","../img/tt/495tt.jpg","y",""
"null","../img/gs/495gs.jpg","","solution","image-keyboard-response","455","783334","0.0-2.0-3.75","JW","2","pretest","true","3530227","null","","",""
"null","../img/tt/495tt.jpg","","mooney2","image-keyboard-response","456","785338","0.0-2.0-4.75","JW","2","pretest","true","3530227","null","","",""
"582","<p>How strong was your <strong>aha-experience</strong>?</p>","","aha","html-keyboard-response","457","785923","0.0-2.0-5.75","JW","2","pretest","true","3530227","50","../img/tt/495tt.jpg","","2"
"null","<div style=""font-size:60px;""> </div>","","fixation","html-keyboard-response","458","786134","0.0-2.0-0.76","JW","2","pretest","true","3530227","null","","",""
"null","../img/tt/1325tt.jpg","","mooney1","image-keyboard-response","459","789137","0.0-2.0-1.76","JW","2","pretest","true","3530227","null","../img/tt/1325tt.jpg","",""
"529","<p></p>","","recognized","html-keyboard-response","460","789669","0.0-2.0-2.76","JW","2","pretest","true","3530227","89","../img/tt/1325tt.jpg","y",""
"null","../img/gs/1325gs.jpg","","solution","image-keyboard-response","461","791681","0.0-2.0-3.76","JW","2","pretest","true","3530227","null","","",""
"null","../img/tt/1325tt.jpg","","mooney2","image-keyboard-response","462","793675","0.0-2.0-4.76","JW","2","pretest","true","3530227","null","","",""
"1704","<p>How strong was your <strong>aha-experience</strong>?</p>","","aha","html-keyboard-response","463","795380","0.0-2.0-5.76","JW","2","pretest","true","3530227","50","../img/tt/1325tt.jpg","","2"
"null","<div style=""font-size:60px;""> </div>","","fixation","html-keyboard-response","464","795591","0.0-2.0-0.77","JW","2","pretest","true","3530227","null","","",""
"null","../img/tt/517tt.jpg","","mooney1","image-keyboard-response","465","798615","0.0-2.0-1.77","JW","2","pretest","true","3530227","null","../img/tt/517tt.jpg","",""
"577","<p></p>","","recognized","html-keyboard-response","466","799193","0.0-2.0-2.77","JW","2","pretest","true","3530227","89","../img/tt/517tt.jpg","y",""
"null","../img/gs/517gs.jpg","","solution","image-keyboard-response","467","801205","0.0-2.0-3.77","JW","2","pretest","true","3530227","null","","",""
"null","../img/tt/517tt.jpg","","mooney2","image-keyboard-response","468","803202","0.0-2.0-4.77","JW","2","pretest","true","3530227","null","","",""
"617","<p>How strong was your <strong>aha-experience</strong>?</p>","","aha","html-keyboard-response","469","803822","0.0-2.0-5.77","JW","2","pretest","true","3530227","52","../img/tt/517tt.jpg","","4"
"null","<div style=""font-size:60px;""> </div>","","fixation","html-keyboard-response","470","804033","0.0-2.0-0.78","JW","2","pretest","true","3530227","null","","",""
"null","../img/tt/1331tt.jpg","","mooney1","image-keyboard-response","471","807047","0.0-2.0-1.78","JW","2","pretest","true","3530227","null","../img/tt/1331tt.jpg","",""
"1134","<p></p>","","recognized","html-keyboard-response","472","808184","0.0-2.0-2.78","JW","2","pretest","true","3530227","78","../img/tt/1331tt.jpg","n",""
"null","../img/gs/1331gs.jpg","","solution","image-keyboard-response","473","810196","0.0-2.0-3.78","JW","2","pretest","true","3530227","null","","",""
"null","../img/tt/1331tt.jpg","","mooney2","image-keyboard-response","474","812192","0.0-2.0-4.78","JW","2","pretest","true","3530227","null","","",""
"874","<p>How strong was your <strong>aha-experience</strong>?</p>","","aha","html-keyboard-response","475","813067","0.0-2.0-5.78","JW","2","pretest","true","3530227","53","../img/tt/1331tt.jpg","","5"
"null","<div style=""font-size:60px;""> </div>","","fixation","html-keyboard-response","476","813278","0.0-2.0-0.79","JW","2","pretest","true","3530227","null","","",""
"null","../img/tt/1363tt.jpg","","mooney1","image-keyboard-response","477","816295","0.0-2.0-1.79","JW","2","pretest","true","3530227","null","../img/tt/1363tt.jpg","",""
"683","<p></p>","","recognized","html-keyboard-response","478","816980","0.0-2.0-2.79","JW","2","pretest","true","3530227","78","../img/tt/1363tt.jpg","n",""
"null","../img/gs/1363gs.jpg","","solution","image-keyboard-response","479","818998","0.0-2.0-3.79","JW","2","pretest","true","3530227","null","","",""
"null","../img/tt/1363tt.jpg","","mooney2","image-keyboard-response","480","820995","0.0-2.0-4.79","JW","2","pretest","true","3530227","null","","",""
"706","<p>How strong was your <strong>aha-experience</strong>?</p>","","aha","html-keyboard-response","481","821704","0.0-2.0-5.79","JW","2","pretest","true","3530227","54","../img/tt/1363tt.jpg","","6"
"null","<div style=""font-size:60px;""> </div>","","fixation","html-keyboard-response","482","821928","0.0-2.0-0.80","JW","2","pretest","true","3530227","null","","",""
"null","../img/tt/412tt.jpg","","mooney1","image-keyboard-response","483","824935","0.0-2.0-1.80","JW","2","pretest","true","3530227","null","../img/tt/412tt.jpg","",""
"903","<p></p>","","recognized","html-keyboard-response","484","825839","0.0-2.0-2.80","JW","2","pretest","true","3530227","78","../img/tt/412tt.jpg","n",""
"null","../img/gs/412gs.jpg","","solution","image-keyboard-response","485","827852","0.0-2.0-3.80","JW","2","pretest","true","3530227","null","","",""
"null","../img/tt/412tt.jpg","","mooney2","image-keyboard-response","486","829853","0.0-2.0-4.80","JW","2","pretest","true","3530227","null","","",""
"732","<p>How strong was your <strong>aha-experience</strong>?</p>","","aha","html-keyboard-response","487","830587","0.0-2.0-5.80","JW","2","pretest","true","3530227","52","../img/tt/412tt.jpg","","4"
"null","<div style=""font-size:60px;""> </div>","","fixation","html-keyboard-response","488","830799","0.0-2.0-0.81","JW","2","pretest","true","3530227","null","","",""
"null","../img/tt/536tt.jpg","","mooney1","image-keyboard-response","489","833817","0.0-2.0-1.81","JW","2","pretest","true","3530227","null","../img/tt/536tt.jpg","",""
"1213","<p></p>","","recognized","html-keyboard-response","490","835032","0.0-2.0-2.81","JW","2","pretest","true","3530227","78","../img/tt/536tt.jpg","n",""
"null","../img/gs/536gs.jpg","","solution","image-keyboard-response","491","837046","0.0-2.0-3.81","JW","2","pretest","true","3530227","null","","",""
"null","../img/tt/536tt.jpg","","mooney2","image-keyboard-response","492","839042","0.0-2.0-4.81","JW","2","pretest","true","3530227","null","","",""
"681","<p>How strong was your <strong>aha-experience</strong>?</p>","","aha","html-keyboard-response","493","839726","0.0-2.0-5.81","JW","2","pretest","true","3530227","52","../img/tt/536tt.jpg","","4"
"null","<div style=""font-size:60px;""> </div>","","fixation","html-keyboard-response","494","839949","0.0-2.0-0.82","JW","2","pretest","true","3530227","null","","",""
"null","../img/tt/406tt.jpg","","mooney1","image-keyboard-response","495","842955","0.0-2.0-1.82","JW","2","pretest","true","3530227","null","../img/tt/406tt.jpg","",""
"722","<p></p>","","recognized","html-keyboard-response","496","843679","0.0-2.0-2.82","JW","2","pretest","true","3530227","78","../img/tt/406tt.jpg","n",""
"null","../img/gs/406gs.jpg","","solution","image-keyboard-response","497","845689","0.0-2.0-3.82","JW","2","pretest","true","3530227","null","","",""
"null","../img/tt/406tt.jpg","","mooney2","image-keyboard-response","498","847688","0.0-2.0-4.82","JW","2","pretest","true","3530227","null","","",""
"1373","<p>How strong was your <strong>aha-experience</strong>?</p>","","aha","html-keyboard-response","499","849062","0.0-2.0-5.82","JW","2","pretest","true","3530227","53","../img/tt/406tt.jpg","","5"
"null","<div style=""font-size:60px;""> </div>","","fixation","html-keyboard-response","500","849273","0.0-2.0-0.83","JW","2","pretest","true","3530227","null","","",""
"null","../img/tt/139tt.jpg","","mooney1","image-keyboard-response","501","852277","0.0-2.0-1.83","JW","2","pretest","true","3530227","null","../img/tt/139tt.jpg","",""
"651","<p></p>","","recognized","html-keyboard-response","502","852931","0.0-2.0-2.83","JW","2","pretest","true","3530227","89","../img/tt/139tt.jpg","y",""
"null","../img/gs/139gs.jpg","","solution","image-keyboard-response","503","854943","0.0-2.0-3.83","JW","2","pretest","true","3530227","null","","",""
"null","../img/tt/139tt.jpg","","mooney2","image-keyboard-response","504","856939","0.0-2.0-4.83","JW","2","pretest","true","3530227","null","","",""
"1175","<p>How strong was your <strong>aha-experience</strong>?</p>","","aha","html-keyboard-response","505","858116","0.0-2.0-5.83","JW","2","pretest","true","3530227","50","../img/tt/139tt.jpg","","2"
"null","<div style=""font-size:60px;""> </div>","","fixation","html-keyboard-response","506","858327","0.0-2.0-0.84","JW","2","pretest","true","3530227","null","","",""
"null","../img/tt/442tt.jpg","","mooney1","image-keyboard-response","507","861330","0.0-2.0-1.84","JW","2","pretest","true","3530227","null","../img/tt/442tt.jpg","",""
"712","<p></p>","","recognized","html-keyboard-response","508","862044","0.0-2.0-2.84","JW","2","pretest","true","3530227","78","../img/tt/442tt.jpg","n",""
"null","../img/gs/442gs.jpg","","solution","image-keyboard-response","509","864061","0.0-2.0-3.84","JW","2","pretest","true","3530227","null","","",""
"null","../img/tt/442tt.jpg","","mooney2","image-keyboard-response","510","866057","0.0-2.0-4.84","JW","2","pretest","true","3530227","null","","",""
"738","<p>How strong was your <strong>aha-experience</strong>?</p>","","aha","html-keyboard-response","511","866798","0.0-2.0-5.84","JW","2","pretest","true","3530227","53","../img/tt/442tt.jpg","","5"
"null","<div style=""font-size:60px;""> </div>","","fixation","html-keyboard-response","512","867021","0.0-2.0-0.85","JW","2","pretest","true","3530227","null","","",""
"null","../img/tt/426tt.jpg","","mooney1","image-keyboard-response","513","870029","0.0-2.0-1.85","JW","2","pretest","true","3530227","null","../img/tt/426tt.jpg","",""
"1115","<p></p>","","recognized","html-keyboard-response","514","871146","0.0-2.0-2.85","JW","2","pretest","true","3530227","78","../img/tt/426tt.jpg","n",""
"null","../img/gs/426gs.jpg","","solution","image-keyboard-response","515","873158","0.0-2.0-3.85","JW","2","pretest","true","3530227","null","","",""
"null","../img/tt/426tt.jpg","","mooney2","image-keyboard-response","516","875154","0.0-2.0-4.85","JW","2","pretest","true","3530227","null","","",""
"605","<p>How strong was your <strong>aha-experience</strong>?</p>","","aha","html-keyboard-response","517","875761","0.0-2.0-5.85","JW","2","pretest","true","3530227","54","../img/tt/426tt.jpg","","6"
"null","<div style=""font-size:60px;""> </div>","","fixation","html-keyboard-response","518","875985","0.0-2.0-0.86","JW","2","pretest","true","3530227","null","","",""
"null","../img/tt/264tt.jpg","","mooney1","image-keyboard-response","519","878989","0.0-2.0-1.86","JW","2","pretest","true","3530227","null","../img/tt/264tt.jpg","",""
"755","<p></p>","","recognized","html-keyboard-response","520","879746","0.0-2.0-2.86","JW","2","pretest","true","3530227","78","../img/tt/264tt.jpg","n",""
"null","../img/gs/264gs.jpg","","solution","image-keyboard-response","521","881758","0.0-2.0-3.86","JW","2","pretest","true","3530227","null","","",""
"null","../img/tt/264tt.jpg","","mooney2","image-keyboard-response","522","883750","0.0-2.0-4.86","JW","2","pretest","true","3530227","null","","",""
"1505","<p>How strong was your <strong>aha-experience</strong>?</p>","","aha","html-keyboard-response","523","885257","0.0-2.0-5.86","JW","2","pretest","true","3530227","53","../img/tt/264tt.jpg","","5"
"null","<div style=""font-size:60px;""> </div>","","fixation","html-keyboard-response","524","885469","0.0-2.0-0.87","JW","2","pretest","true","3530227","null","","",""
"null","../img/tt/486tt.jpg","","mooney1","image-keyboard-response","525","888477","0.0-2.0-1.87","JW","2","pretest","true","3530227","null","../img/tt/486tt.jpg","",""
"638","<p></p>","","recognized","html-keyboard-response","526","889117","0.0-2.0-2.87","JW","2","pretest","true","3530227","89","../img/tt/486tt.jpg","y",""
"null","../img/gs/486gs.jpg","","solution","image-keyboard-response","527","891130","0.0-2.0-3.87","JW","2","pretest","true","3530227","null","","",""
"null","../img/tt/486tt.jpg","","mooney2","image-keyboard-response","528","893126","0.0-2.0-4.87","JW","2","pretest","true","3530227","null","","",""
"677","<p>How strong was your <strong>aha-experience</strong>?</p>","","aha","html-keyboard-response","529","893806","0.0-2.0-5.87","JW","2","pretest","true","3530227","51","../img/tt/486tt.jpg","","3"
"null","<div style=""font-size:60px;""> </div>","","fixation","html-keyboard-response","530","894029","0.0-2.0-0.88","JW","2","pretest","true","3530227","null","","",""
"null","../img/tt/391tt.jpg","","mooney1","image-keyboard-response","531","897035","0.0-2.0-1.88","JW","2","pretest","true","3530227","null","../img/tt/391tt.jpg","",""
"1030","<p></p>","","recognized","html-keyboard-response","532","898066","0.0-2.0-2.88","JW","2","pretest","true","3530227","78","../img/tt/391tt.jpg","n",""
"null","../img/gs/391gs.jpg","","solution","image-keyboard-response","533","900078","0.0-2.0-3.88","JW","2","pretest","true","3530227","null","","",""
"null","../img/tt/391tt.jpg","","mooney2","image-keyboard-response","534","902076","0.0-2.0-4.88","JW","2","pretest","true","3530227","null","","",""
"833","<p>How strong was your <strong>aha-experience</strong>?</p>","","aha","html-keyboard-response","535","902911","0.0-2.0-5.88","JW","2","pretest","true","3530227","52","../img/tt/391tt.jpg","","4"
"null","<div style=""font-size:60px;""> </div>","","fixation","html-keyboard-response","536","903124","0.0-2.0-0.89","JW","2","pretest","true","3530227","null","","",""
"null","../img/tt/567tt.jpg","","mooney1","image-keyboard-response","537","906139","0.0-2.0-1.89","JW","2","pretest","true","3530227","null","../img/tt/567tt.jpg","",""
"571","<p></p>","","recognized","html-keyboard-response","538","906715","0.0-2.0-2.89","JW","2","pretest","true","3530227","78","../img/tt/567tt.jpg","n",""
"null","../img/gs/567gs.jpg","","solution","image-keyboard-response","539","908729","0.0-2.0-3.89","JW","2","pretest","true","3530227","null","","",""
"null","../img/tt/567tt.jpg","","mooney2","image-keyboard-response","540","910729","0.0-2.0-4.89","JW","2","pretest","true","3530227","null","","",""
"586","<p>How strong was your <strong>aha-experience</strong>?</p>","","aha","html-keyboard-response","541","911317","0.0-2.0-5.89","JW","2","pretest","true","3530227","52","../img/tt/567tt.jpg","","4"
"null","<div style=""font-size:60px;""> </div>","","fixation","html-keyboard-response","542","911540","0.0-2.0-0.90","JW","2","pretest","true","3530227","null","","",""
"null","../img/tt/325tt.jpg","","mooney1","image-keyboard-response","543","914547","0.0-2.0-1.90","JW","2","pretest","true","3530227","null","../img/tt/325tt.jpg","",""
"631","<p></p>","","recognized","html-keyboard-response","544","915179","0.0-2.0-2.90","JW","2","pretest","true","3530227","78","../img/tt/325tt.jpg","n",""
"null","../img/gs/325gs.jpg","","solution","image-keyboard-response","545","917189","0.0-2.0-3.90","JW","2","pretest","true","3530227","null","","",""
"null","../img/tt/325tt.jpg","","mooney2","image-keyboard-response","546","919189","0.0-2.0-4.90","JW","2","pretest","true","3530227","null","","",""
"890","<p>How strong was your <strong>aha-experience</strong>?</p>","","aha","html-keyboard-response","547","920082","0.0-2.0-5.90","JW","2","pretest","true","3530227","51","../img/tt/325tt.jpg","","3"
"null","<div style=""font-size:60px;""> </div>","","fixation","html-keyboard-response","548","920293","0.0-2.0-0.91","JW","2","pretest","true","3530227","null","","",""
"null","../img/tt/1370tt.jpg","","mooney1","image-keyboard-response","549","923298","0.0-2.0-1.91","JW","2","pretest","true","3530227","null","../img/tt/1370tt.jpg","",""
"802","<p></p>","","recognized","html-keyboard-response","550","924102","0.0-2.0-2.91","JW","2","pretest","true","3530227","89","../img/tt/1370tt.jpg","y",""
"null","../img/gs/1370gs.jpg","","solution","image-keyboard-response","551","926114","0.0-2.0-3.91","JW","2","pretest","true","3530227","null","","",""
"null","../img/tt/1370tt.jpg","","mooney2","image-keyboard-response","552","928109","0.0-2.0-4.91","JW","2","pretest","true","3530227","null","","",""
"773","<p>How strong was your <strong>aha-experience</strong>?</p>","","aha","html-keyboard-response","553","928884","0.0-2.0-5.91","JW","2","pretest","true","3530227","50","../img/tt/1370tt.jpg","","2"
"null","<div style=""font-size:60px;""> </div>","","fixation","html-keyboard-response","554","929098","0.0-2.0-0.92","JW","2","pretest","true","3530227","null","","",""
"null","../img/tt/481tt.jpg","","mooney1","image-keyboard-response","555","932112","0.0-2.0-1.92","JW","2","pretest","true","3530227","null","../img/tt/481tt.jpg","",""
"611","<p></p>","","recognized","html-keyboard-response","556","932725","0.0-2.0-2.92","JW","2","pretest","true","3530227","78","../img/tt/481tt.jpg","n",""
"null","../img/gs/481gs.jpg","","solution","image-keyboard-response","557","934738","0.0-2.0-3.92","JW","2","pretest","true","3530227","null","","",""
"null","../img/tt/481tt.jpg","","mooney2","image-keyboard-response","558","936733","0.0-2.0-4.92","JW","2","pretest","true","3530227","null","","",""
"1016","<p>How strong was your <strong>aha-experience</strong>?</p>","","aha","html-keyboard-response","559","937751","0.0-2.0-5.92","JW","2","pretest","true","3530227","53","../img/tt/481tt.jpg","","5"
"null","<div style=""font-size:60px;""> </div>","","fixation","html-keyboard-response","560","937964","0.0-2.0-0.93","JW","2","pretest","true","3530227","null","","",""
"null","../img/tt/1300tt.jpg","","mooney1","image-keyboard-response","561","940971","0.0-2.0-1.93","JW","2","pretest","true","3530227","null","../img/tt/1300tt.jpg","",""
"607","<p></p>","","recognized","html-keyboard-response","562","941582","0.0-2.0-2.93","JW","2","pretest","true","3530227","89","../img/tt/1300tt.jpg","y",""
"null","../img/gs/1300gs.jpg","","solution","image-keyboard-response","563","943594","0.0-2.0-3.93","JW","2","pretest","true","3530227","null","","",""
"null","../img/tt/1300tt.jpg","","mooney2","image-keyboard-response","564","945590","0.0-2.0-4.93","JW","2","pretest","true","3530227","null","","",""
"844","<p>How strong was your <strong>aha-experience</strong>?</p>","","aha","html-keyboard-response","565","946437","0.0-2.0-5.93","JW","2","pretest","true","3530227","51","../img/tt/1300tt.jpg","","3"
"null","<div style=""font-size:60px;""> </div>","","fixation","html-keyboard-response","566","946649","0.0-2.0-0.94","JW","2","pretest","true","3530227","null","","",""
"null","../img/tt/1355tt.jpg","","mooney1","image-keyboard-response","567","949664","0.0-2.0-1.94","JW","2","pretest","true","3530227","null","../img/tt/1355tt.jpg","",""
"877","<p></p>","","recognized","html-keyboard-response","568","950545","0.0-2.0-2.94","JW","2","pretest","true","3530227","89","../img/tt/1355tt.jpg","y",""
"null","../img/gs/1355gs.jpg","","solution","image-keyboard-response","569","952562","0.0-2.0-3.94","JW","2","pretest","true","3530227","null","","",""
"null","../img/tt/1355tt.jpg","","mooney2","image-keyboard-response","570","954558","0.0-2.0-4.94","JW","2","pretest","true","3530227","null","","",""
