"rt","stimulus","button_pressed","test_part","trial_type","trial_index","time_elapsed","internal_node_id","subject","session","experiment_name","complete","totalTime","key_press","currentStim","recognized","aha"
"60256","<div style='word-wrap: break-word; width: 900px'><h3>Please consider this information carefully before deciding whether to participate in this research</h3><ul style='text-align: left; font-size: .8em;'><li><b>Purpose of the research</b>: To examine how people process images.</li><li><b>What you will do in this research</b>:  Stimuli (images) will be presented on the computer and you will be asked different questions about them.</li><li><b>Time required</b>: Participation will take max 60 minutes to complete.</li><li><b>Risks</b>:  There are no anticipated risks associated with participating in this study. The effects of participating should be comparable to those you would experience from viewing a computer monitor for 60 minutes and using a mouse or keyboard.</li><li><b>Benefits</b>:  This study provides no benefits to you individually. The study provides important information about the nature of perception and learning.</li><li><b>Confidentiality</b>:  Your participation in this study will remain confidential. No personally identifiable information will be associated with your data. Your de-identified data may be shared with other researchers and used in future projects.</li><li><b>Participation and withdrawal</b>:  Your participation in this study is completely voluntary and you may refuse to participate or you may choose to withdraw at any time without penalty.</li><li><b>How to contact the researchers</b>: If you have questions or concerns about your participation or payment, or want to request a summary of research findings, please contact Sander Van de Cruys (KU Leuven), at sander.vandecruys@kuleuven.be.</li></ul><p>The nature and purpose of this research have been sufficiently explained and I agree to participate in this study.  I understand that I am free to withdraw at any time without incurring any penalty.</p><p>Please consent by clicking the button below to continue. Otherwise, please exit the study at this time.</p></div>","0","instructions","html-button-response","0","60259","0.0-0.0","J.W.","1","pretest","true","3859074","","","",""
"139252","<div style='word-wrap: break-word; width: 900px'><h3>Instructions</h3><p>In this experiment you will see a series of distorted images like the one below on the left. As you can see in the righthand image, the distorted images are derived from actual photographs.In what follows, you will <strong>briefly</strong> be presented with <strong>only</strong> the distorted image.</p> <div style='float: left; margin-right: 20px;'><img src='../img/018tt.jpg' height='250' width='250'></img></div><div style='float: right; margin-left: 20px;'><img src='../img/018gs.jpg' height='250' width='250'></img></div><p>To be useful for future research, we need to select those images that people can generally not solve on their own. Therefore we'll show you the distorted image and ask you to indicate (yes or no) whether you already recognized what was in the image. This is not a competition, so please respond truthfully. We don't ask or check your answer, we just want to know whether you think you recognized it. All images depict objects from one of these broad level categories: animals, inanimate objects, plants, sports, vehicles, and food. Recognizing means knowing more than these broad labels for a given image. It means knowing at least the basic level category of the main object in the image, for example when you see a parrot in the image, 'parrot' will obviously be a correct answer but also correct is 'bird', but not 'animal' (the broad level category). For the example above, 'rose' would be correct or 'flower', but not 'plant'. When soccer players are depicted, you don't recognize the image when you just see 'humans', 'outdoors', or 'sports'. Note that complete certainty about your answer is not necessary, it's enough to have a good, definite guess on the object, to say 'yes, I recognized it'.</p><p>One additional question will be asked after we've revealed the solution: You'll be asked to indicate how strong your <strong>aha-experience</strong> was. This describes the positive 'click' you sometimes experience, when the pieces of the 'puzzle' fall together and you suddenly have 'insight' in the image. It describes how good you felt the 'fit' was between the distorted image and the solution.</p><p>Press any key to start.</p></div>","","instructions","html-keyboard-response","1","199513","0.0-1.0","J.W.","1","pretest","true","3859074","32","","",""
"null","<div style=""font-size:60px;""> </div>","","fixation","html-keyboard-response","2","199715","0.0-2.0-0.0","J.W.","1","pretest","true","3859074","null","","",""
"null","../img/tt/033tt.jpg","","mooney1","image-keyboard-response","3","202719","0.0-2.0-1.0","J.W.","1","pretest","true","3859074","null","../img/tt/033tt.jpg","",""
"2549","<p></p>","","recognized","html-keyboard-response","4","205271","0.0-2.0-2.0","J.W.","1","pretest","true","3859074","78","../img/tt/033tt.jpg","n",""
"null","../img/gs/033gs.jpg","","solution","image-keyboard-response","5","207274","0.0-2.0-3.0","J.W.","1","pretest","true","3859074","null","","",""
"null","../img/tt/033tt.jpg","","mooney2","image-keyboard-response","6","209276","0.0-2.0-4.0","J.W.","1","pretest","true","3859074","null","","",""
"16469","<p>How strong was your <strong>aha-experience</strong>?</p>","","aha","html-keyboard-response","7","225746","0.0-2.0-5.0","J.W.","1","pretest","true","3859074","50","../img/tt/033tt.jpg","","2"
"null","<div style=""font-size:60px;""> </div>","","fixation","html-keyboard-response","8","225951","0.0-2.0-0.1","J.W.","1","pretest","true","3859074","null","","",""
"null","../img/tt/052tt.jpg","","mooney1","image-keyboard-response","9","228953","0.0-2.0-1.1","J.W.","1","pretest","true","3859074","null","../img/tt/052tt.jpg","",""
"1702","<p></p>","","recognized","html-keyboard-response","10","230657","0.0-2.0-2.1","J.W.","1","pretest","true","3859074","78","../img/tt/052tt.jpg","n",""
"null","../img/gs/052gs.jpg","","solution","image-keyboard-response","11","232661","0.0-2.0-3.1","J.W.","1","pretest","true","3859074","null","","",""
"null","../img/tt/052tt.jpg","","mooney2","image-keyboard-response","12","234663","0.0-2.0-4.1","J.W.","1","pretest","true","3859074","null","","",""
"5073","<p>How strong was your <strong>aha-experience</strong>?</p>","","aha","html-keyboard-response","13","239737","0.0-2.0-5.1","J.W.","1","pretest","true","3859074","51","../img/tt/052tt.jpg","","3"
"null","<div style=""font-size:60px;""> </div>","","fixation","html-keyboard-response","14","239940","0.0-2.0-0.2","J.W.","1","pretest","true","3859074","null","","",""
"null","../img/tt/1072tt.jpg","","mooney1","image-keyboard-response","15","242943","0.0-2.0-1.2","J.W.","1","pretest","true","3859074","null","../img/tt/1072tt.jpg","",""
"1636","<p></p>","","recognized","html-keyboard-response","16","244580","0.0-2.0-2.2","J.W.","1","pretest","true","3859074","78","../img/tt/1072tt.jpg","n",""
"null","../img/gs/1072gs.jpg","","solution","image-keyboard-response","17","246584","0.0-2.0-3.2","J.W.","1","pretest","true","3859074","null","","",""
"null","../img/tt/1072tt.jpg","","mooney2","image-keyboard-response","18","248587","0.0-2.0-4.2","J.W.","1","pretest","true","3859074","null","","",""
"5117","<p>How strong was your <strong>aha-experience</strong>?</p>","","aha","html-keyboard-response","19","253705","0.0-2.0-5.2","J.W.","1","pretest","true","3859074","51","../img/tt/1072tt.jpg","","3"
"null","<div style=""font-size:60px;""> </div>","","fixation","html-keyboard-response","20","253907","0.0-2.0-0.3","J.W.","1","pretest","true","3859074","null","","",""
"null","../img/tt/1178tt.jpg","","mooney1","image-keyboard-response","21","256911","0.0-2.0-1.3","J.W.","1","pretest","true","3859074","null","../img/tt/1178tt.jpg","",""
"1896","<p></p>","","recognized","html-keyboard-response","22","258808","0.0-2.0-2.3","J.W.","1","pretest","true","3859074","89","../img/tt/1178tt.jpg","y",""
"null","../img/gs/1178gs.jpg","","solution","image-keyboard-response","23","260812","0.0-2.0-3.3","J.W.","1","pretest","true","3859074","null","","",""
"null","../img/tt/1178tt.jpg","","mooney2","image-keyboard-response","24","262814","0.0-2.0-4.3","J.W.","1","pretest","true","3859074","null","","",""
"4879","<p>How strong was your <strong>aha-experience</strong>?</p>","","aha","html-keyboard-response","25","267694","0.0-2.0-5.3","J.W.","1","pretest","true","3859074","52","../img/tt/1178tt.jpg","","4"
"null","<div style=""font-size:60px;""> </div>","","fixation","html-keyboard-response","26","267897","0.0-2.0-0.4","J.W.","1","pretest","true","3859074","null","","",""
"null","../img/tt/1035tt.jpg","","mooney1","image-keyboard-response","27","270900","0.0-2.0-1.4","J.W.","1","pretest","true","3859074","null","../img/tt/1035tt.jpg","",""
"2087","<p></p>","","recognized","html-keyboard-response","28","272989","0.0-2.0-2.4","J.W.","1","pretest","true","3859074","78","../img/tt/1035tt.jpg","n",""
"null","../img/gs/1035gs.jpg","","solution","image-keyboard-response","29","274991","0.0-2.0-3.4","J.W.","1","pretest","true","3859074","null","","",""
"null","../img/tt/1035tt.jpg","","mooney2","image-keyboard-response","30","276994","0.0-2.0-4.4","J.W.","1","pretest","true","3859074","null","","",""
"2007","<p>How strong was your <strong>aha-experience</strong>?</p>","","aha","html-keyboard-response","31","279001","0.0-2.0-5.4","J.W.","1","pretest","true","3859074","54","../img/tt/1035tt.jpg","","6"
"null","<div style=""font-size:60px;""> </div>","","fixation","html-keyboard-response","32","279203","0.0-2.0-0.5","J.W.","1","pretest","true","3859074","null","","",""
"null","../img/tt/1102tt.jpg","","mooney1","image-keyboard-response","33","282206","0.0-2.0-1.5","J.W.","1","pretest","true","3859074","null","../img/tt/1102tt.jpg","",""
"1363","<p></p>","","recognized","html-keyboard-response","34","283571","0.0-2.0-2.5","J.W.","1","pretest","true","3859074","78","../img/tt/1102tt.jpg","n",""
"null","../img/gs/1102gs.jpg","","solution","image-keyboard-response","35","285573","0.0-2.0-3.5","J.W.","1","pretest","true","3859074","null","","",""
"null","../img/tt/1102tt.jpg","","mooney2","image-keyboard-response","36","287576","0.0-2.0-4.5","J.W.","1","pretest","true","3859074","null","","",""
"2365","<p>How strong was your <strong>aha-experience</strong>?</p>","","aha","html-keyboard-response","37","289943","0.0-2.0-5.5","J.W.","1","pretest","true","3859074","53","../img/tt/1102tt.jpg","","5"
"null","<div style=""font-size:60px;""> </div>","","fixation","html-keyboard-response","38","290146","0.0-2.0-0.6","J.W.","1","pretest","true","3859074","null","","",""
"null","../img/tt/1109tt.jpg","","mooney1","image-keyboard-response","39","293150","0.0-2.0-1.6","J.W.","1","pretest","true","3859074","null","../img/tt/1109tt.jpg","",""
"1300","<p></p>","","recognized","html-keyboard-response","40","294451","0.0-2.0-2.6","J.W.","1","pretest","true","3859074","78","../img/tt/1109tt.jpg","n",""
"null","../img/gs/1109gs.jpg","","solution","image-keyboard-response","41","296453","0.0-2.0-3.6","J.W.","1","pretest","true","3859074","null","","",""
"null","../img/tt/1109tt.jpg","","mooney2","image-keyboard-response","42","298454","0.0-2.0-4.6","J.W.","1","pretest","true","3859074","null","","",""
"1635","<p>How strong was your <strong>aha-experience</strong>?</p>","","aha","html-keyboard-response","43","300091","0.0-2.0-5.6","J.W.","1","pretest","true","3859074","49","../img/tt/1109tt.jpg","","1"
"null","<div style=""font-size:60px;""> </div>","","fixation","html-keyboard-response","44","300293","0.0-2.0-0.7","J.W.","1","pretest","true","3859074","null","","",""
"null","../img/tt/1173tt.jpg","","mooney1","image-keyboard-response","45","303297","0.0-2.0-1.7","J.W.","1","pretest","true","3859074","null","../img/tt/1173tt.jpg","",""
"3754","<p></p>","","recognized","html-keyboard-response","46","307052","0.0-2.0-2.7","J.W.","1","pretest","true","3859074","89","../img/tt/1173tt.jpg","y",""
"null","../img/gs/1173gs.jpg","","solution","image-keyboard-response","47","309055","0.0-2.0-3.7","J.W.","1","pretest","true","3859074","null","","",""
"null","../img/tt/1173tt.jpg","","mooney2","image-keyboard-response","48","311058","0.0-2.0-4.7","J.W.","1","pretest","true","3859074","null","","",""
"2083","<p>How strong was your <strong>aha-experience</strong>?</p>","","aha","html-keyboard-response","49","313142","0.0-2.0-5.7","J.W.","1","pretest","true","3859074","50","../img/tt/1173tt.jpg","","2"
"null","<div style=""font-size:60px;""> </div>","","fixation","html-keyboard-response","50","313344","0.0-2.0-0.8","J.W.","1","pretest","true","3859074","null","","",""
"null","../img/tt/1263tt.jpg","","mooney1","image-keyboard-response","51","316348","0.0-2.0-1.8","J.W.","1","pretest","true","3859074","null","../img/tt/1263tt.jpg","",""
"1272","<p></p>","","recognized","html-keyboard-response","52","317621","0.0-2.0-2.8","J.W.","1","pretest","true","3859074","78","../img/tt/1263tt.jpg","n",""
"null","../img/gs/1263gs.jpg","","solution","image-keyboard-response","53","319625","0.0-2.0-3.8","J.W.","1","pretest","true","3859074","null","","",""
"null","../img/tt/1263tt.jpg","","mooney2","image-keyboard-response","54","321628","0.0-2.0-4.8","J.W.","1","pretest","true","3859074","null","","",""
"4143","<p>How strong was your <strong>aha-experience</strong>?</p>","","aha","html-keyboard-response","55","325772","0.0-2.0-5.8","J.W.","1","pretest","true","3859074","52","../img/tt/1263tt.jpg","","4"
"null","<div style=""font-size:60px;""> </div>","","fixation","html-keyboard-response","56","325974","0.0-2.0-0.9","J.W.","1","pretest","true","3859074","null","","",""
"null","../img/tt/1268tt.jpg","","mooney1","image-keyboard-response","57","328978","0.0-2.0-1.9","J.W.","1","pretest","true","3859074","null","../img/tt/1268tt.jpg","",""
"1200","<p></p>","","recognized","html-keyboard-response","58","330179","0.0-2.0-2.9","J.W.","1","pretest","true","3859074","78","../img/tt/1268tt.jpg","n",""
"null","../img/gs/1268gs.jpg","","solution","image-keyboard-response","59","332182","0.0-2.0-3.9","J.W.","1","pretest","true","3859074","null","","",""
"null","../img/tt/1268tt.jpg","","mooney2","image-keyboard-response","60","334185","0.0-2.0-4.9","J.W.","1","pretest","true","3859074","null","","",""
"1131","<p>How strong was your <strong>aha-experience</strong>?</p>","","aha","html-keyboard-response","61","335318","0.0-2.0-5.9","J.W.","1","pretest","true","3859074","55","../img/tt/1268tt.jpg","","7"
"null","<div style=""font-size:60px;""> </div>","","fixation","html-keyboard-response","62","335519","0.0-2.0-0.10","J.W.","1","pretest","true","3859074","null","","",""
"null","../img/tt/1101tt.jpg","","mooney1","image-keyboard-response","63","338521","0.0-2.0-1.10","J.W.","1","pretest","true","3859074","null","../img/tt/1101tt.jpg","",""
"2176","<p></p>","","recognized","html-keyboard-response","64","340699","0.0-2.0-2.10","J.W.","1","pretest","true","3859074","78","../img/tt/1101tt.jpg","n",""
"null","../img/gs/1101gs.jpg","","solution","image-keyboard-response","65","342702","0.0-2.0-3.10","J.W.","1","pretest","true","3859074","null","","",""
"null","../img/tt/1101tt.jpg","","mooney2","image-keyboard-response","66","344704","0.0-2.0-4.10","J.W.","1","pretest","true","3859074","null","","",""
"3212","<p>How strong was your <strong>aha-experience</strong>?</p>","","aha","html-keyboard-response","67","347918","0.0-2.0-5.10","J.W.","1","pretest","true","3859074","50","../img/tt/1101tt.jpg","","2"
"null","<div style=""font-size:60px;""> </div>","","fixation","html-keyboard-response","68","348120","0.0-2.0-0.11","J.W.","1","pretest","true","3859074","null","","",""
"null","../img/tt/1017tt.jpg","","mooney1","image-keyboard-response","69","351128","0.0-2.0-1.11","J.W.","1","pretest","true","3859074","null","../img/tt/1017tt.jpg","",""
"1107","<p></p>","","recognized","html-keyboard-response","70","352236","0.0-2.0-2.11","J.W.","1","pretest","true","3859074","78","../img/tt/1017tt.jpg","n",""
"null","../img/gs/1017gs.jpg","","solution","image-keyboard-response","71","354240","0.0-2.0-3.11","J.W.","1","pretest","true","3859074","null","","",""
"null","../img/tt/1017tt.jpg","","mooney2","image-keyboard-response","72","356246","0.0-2.0-4.11","J.W.","1","pretest","true","3859074","null","","",""
"917","<p>How strong was your <strong>aha-experience</strong>?</p>","","aha","html-keyboard-response","73","357164","0.0-2.0-5.11","J.W.","1","pretest","true","3859074","49","../img/tt/1017tt.jpg","","1"
"null","<div style=""font-size:60px;""> </div>","","fixation","html-keyboard-response","74","357366","0.0-2.0-0.12","J.W.","1","pretest","true","3859074","null","","",""
"null","../img/tt/053tt.jpg","","mooney1","image-keyboard-response","75","360367","0.0-2.0-1.12","J.W.","1","pretest","true","3859074","null","../img/tt/053tt.jpg","",""
"1998","<p></p>","","recognized","html-keyboard-response","76","362366","0.0-2.0-2.12","J.W.","1","pretest","true","3859074","89","../img/tt/053tt.jpg","y",""
"null","../img/gs/053gs.jpg","","solution","image-keyboard-response","77","364368","0.0-2.0-3.12","J.W.","1","pretest","true","3859074","null","","",""
"null","../img/tt/053tt.jpg","","mooney2","image-keyboard-response","78","366370","0.0-2.0-4.12","J.W.","1","pretest","true","3859074","null","","",""
"1494","<p>How strong was your <strong>aha-experience</strong>?</p>","","aha","html-keyboard-response","79","367865","0.0-2.0-5.12","J.W.","1","pretest","true","3859074","54","../img/tt/053tt.jpg","","6"
"null","<div style=""font-size:60px;""> </div>","","fixation","html-keyboard-response","80","368068","0.0-2.0-0.13","J.W.","1","pretest","true","3859074","null","","",""
"null","../img/tt/1122tt.jpg","","mooney1","image-keyboard-response","81","371072","0.0-2.0-1.13","J.W.","1","pretest","true","3859074","null","../img/tt/1122tt.jpg","",""
"2376","<p></p>","","recognized","html-keyboard-response","82","373448","0.0-2.0-2.13","J.W.","1","pretest","true","3859074","89","../img/tt/1122tt.jpg","y",""
"null","../img/gs/1122gs.jpg","","solution","image-keyboard-response","83","375454","0.0-2.0-3.13","J.W.","1","pretest","true","3859074","null","","",""
"null","../img/tt/1122tt.jpg","","mooney2","image-keyboard-response","84","377456","0.0-2.0-4.13","J.W.","1","pretest","true","3859074","null","","",""
"10337","<p>How strong was your <strong>aha-experience</strong>?</p>","","aha","html-keyboard-response","85","387795","0.0-2.0-5.13","J.W.","1","pretest","true","3859074","55","../img/tt/1122tt.jpg","","7"
"null","<div style=""font-size:60px;""> </div>","","fixation","html-keyboard-response","86","387996","0.0-2.0-0.14","J.W.","1","pretest","true","3859074","null","","",""
"null","../img/tt/1196tt.jpg","","mooney1","image-keyboard-response","87","391000","0.0-2.0-1.14","J.W.","1","pretest","true","3859074","null","../img/tt/1196tt.jpg","",""
"1146","<p></p>","","recognized","html-keyboard-response","88","392147","0.0-2.0-2.14","J.W.","1","pretest","true","3859074","78","../img/tt/1196tt.jpg","n",""
"null","../img/gs/1196gs.jpg","","solution","image-keyboard-response","89","394150","0.0-2.0-3.14","J.W.","1","pretest","true","3859074","null","","",""
"null","../img/tt/1196tt.jpg","","mooney2","image-keyboard-response","90","396152","0.0-2.0-4.14","J.W.","1","pretest","true","3859074","null","","",""
"1207","<p>How strong was your <strong>aha-experience</strong>?</p>","","aha","html-keyboard-response","91","397360","0.0-2.0-5.14","J.W.","1","pretest","true","3859074","52","../img/tt/1196tt.jpg","","4"
"null","<div style=""font-size:60px;""> </div>","","fixation","html-keyboard-response","92","397561","0.0-2.0-0.15","J.W.","1","pretest","true","3859074","null","","",""
"null","../img/tt/1214tt.jpg","","mooney1","image-keyboard-response","93","400564","0.0-2.0-1.15","J.W.","1","pretest","true","3859074","null","../img/tt/1214tt.jpg","",""
"884","<p></p>","","recognized","html-keyboard-response","94","401450","0.0-2.0-2.15","J.W.","1","pretest","true","3859074","78","../img/tt/1214tt.jpg","n",""
"null","../img/gs/1214gs.jpg","","solution","image-keyboard-response","95","403454","0.0-2.0-3.15","J.W.","1","pretest","true","3859074","null","","",""
"null","../img/tt/1214tt.jpg","","mooney2","image-keyboard-response","96","405456","0.0-2.0-4.15","J.W.","1","pretest","true","3859074","null","","",""
"2496","<p>How strong was your <strong>aha-experience</strong>?</p>","","aha","html-keyboard-response","97","407954","0.0-2.0-5.15","J.W.","1","pretest","true","3859074","50","../img/tt/1214tt.jpg","","2"
"null","<div style=""font-size:60px;""> </div>","","fixation","html-keyboard-response","98","408155","0.0-2.0-0.16","J.W.","1","pretest","true","3859074","null","","",""
"null","../img/tt/1007tt.jpg","","mooney1","image-keyboard-response","99","411159","0.0-2.0-1.16","J.W.","1","pretest","true","3859074","null","../img/tt/1007tt.jpg","",""
"1452","<p></p>","","recognized","html-keyboard-response","100","412612","0.0-2.0-2.16","J.W.","1","pretest","true","3859074","78","../img/tt/1007tt.jpg","n",""
"null","../img/gs/1007gs.jpg","","solution","image-keyboard-response","101","414615","0.0-2.0-3.16","J.W.","1","pretest","true","3859074","null","","",""
"null","../img/tt/1007tt.jpg","","mooney2","image-keyboard-response","102","416617","0.0-2.0-4.16","J.W.","1","pretest","true","3859074","null","","",""
"1220","<p>How strong was your <strong>aha-experience</strong>?</p>","","aha","html-keyboard-response","103","417839","0.0-2.0-5.16","J.W.","1","pretest","true","3859074","55","../img/tt/1007tt.jpg","","7"
"null","<div style=""font-size:60px;""> </div>","","fixation","html-keyboard-response","104","418041","0.0-2.0-0.17","J.W.","1","pretest","true","3859074","null","","",""
"null","../img/tt/1078tt.jpg","","mooney1","image-keyboard-response","105","421044","0.0-2.0-1.17","J.W.","1","pretest","true","3859074","null","../img/tt/1078tt.jpg","",""
"1859","<p></p>","","recognized","html-keyboard-response","106","422904","0.0-2.0-2.17","J.W.","1","pretest","true","3859074","89","../img/tt/1078tt.jpg","y",""
"null","../img/gs/1078gs.jpg","","solution","image-keyboard-response","107","424908","0.0-2.0-3.17","J.W.","1","pretest","true","3859074","null","","",""
"null","../img/tt/1078tt.jpg","","mooney2","image-keyboard-response","108","426910","0.0-2.0-4.17","J.W.","1","pretest","true","3859074","null","","",""
"1591","<p>How strong was your <strong>aha-experience</strong>?</p>","","aha","html-keyboard-response","109","428503","0.0-2.0-5.17","J.W.","1","pretest","true","3859074","51","../img/tt/1078tt.jpg","","3"
"null","<div style=""font-size:60px;""> </div>","","fixation","html-keyboard-response","110","428705","0.0-2.0-0.18","J.W.","1","pretest","true","3859074","null","","",""
"null","../img/tt/1198tt.jpg","","mooney1","image-keyboard-response","111","431708","0.0-2.0-1.18","J.W.","1","pretest","true","3859074","null","../img/tt/1198tt.jpg","",""
"1561","<p></p>","","recognized","html-keyboard-response","112","433270","0.0-2.0-2.18","J.W.","1","pretest","true","3859074","89","../img/tt/1198tt.jpg","y",""
"null","../img/gs/1198gs.jpg","","solution","image-keyboard-response","113","435274","0.0-2.0-3.18","J.W.","1","pretest","true","3859074","null","","",""
"null","../img/tt/1198tt.jpg","","mooney2","image-keyboard-response","114","437276","0.0-2.0-4.18","J.W.","1","pretest","true","3859074","null","","",""
"901","<p>How strong was your <strong>aha-experience</strong>?</p>","","aha","html-keyboard-response","115","438179","0.0-2.0-5.18","J.W.","1","pretest","true","3859074","54","../img/tt/1198tt.jpg","","6"
"null","<div style=""font-size:60px;""> </div>","","fixation","html-keyboard-response","116","438381","0.0-2.0-0.19","J.W.","1","pretest","true","3859074","null","","",""
"null","../img/tt/1185tt.jpg","","mooney1","image-keyboard-response","117","441384","0.0-2.0-1.19","J.W.","1","pretest","true","3859074","null","../img/tt/1185tt.jpg","",""
"452","<p></p>","","recognized","html-keyboard-response","118","441836","0.0-2.0-2.19","J.W.","1","pretest","true","3859074","78","../img/tt/1185tt.jpg","n",""
"null","../img/gs/1185gs.jpg","","solution","image-keyboard-response","119","443838","0.0-2.0-3.19","J.W.","1","pretest","true","3859074","null","","",""
"null","../img/tt/1185tt.jpg","","mooney2","image-keyboard-response","120","445841","0.0-2.0-4.19","J.W.","1","pretest","true","3859074","null","","",""
"525","<p>How strong was your <strong>aha-experience</strong>?</p>","","aha","html-keyboard-response","121","446371","0.0-2.0-5.19","J.W.","1","pretest","true","3859074","49","../img/tt/1185tt.jpg","","1"
"null","<div style=""font-size:60px;""> </div>","","fixation","html-keyboard-response","122","446572","0.0-2.0-0.20","J.W.","1","pretest","true","3859074","null","","",""
"null","../img/tt/1251tt.jpg","","mooney1","image-keyboard-response","123","449575","0.0-2.0-1.20","J.W.","1","pretest","true","3859074","null","../img/tt/1251tt.jpg","",""
"1148","<p></p>","","recognized","html-keyboard-response","124","450724","0.0-2.0-2.20","J.W.","1","pretest","true","3859074","78","../img/tt/1251tt.jpg","n",""
"null","../img/gs/1251gs.jpg","","solution","image-keyboard-response","125","452726","0.0-2.0-3.20","J.W.","1","pretest","true","3859074","null","","",""
"null","../img/tt/1251tt.jpg","","mooney2","image-keyboard-response","126","454728","0.0-2.0-4.20","J.W.","1","pretest","true","3859074","null","","",""
"1902","<p>How strong was your <strong>aha-experience</strong>?</p>","","aha","html-keyboard-response","127","456631","0.0-2.0-5.20","J.W.","1","pretest","true","3859074","51","../img/tt/1251tt.jpg","","3"
"null","<div style=""font-size:60px;""> </div>","","fixation","html-keyboard-response","128","456833","0.0-2.0-0.21","J.W.","1","pretest","true","3859074","null","","",""
"null","../img/tt/1128tt.jpg","","mooney1","image-keyboard-response","129","459836","0.0-2.0-1.21","J.W.","1","pretest","true","3859074","null","../img/tt/1128tt.jpg","",""
"1424","<p></p>","","recognized","html-keyboard-response","130","461260","0.0-2.0-2.21","J.W.","1","pretest","true","3859074","78","../img/tt/1128tt.jpg","n",""
"null","../img/gs/1128gs.jpg","","solution","image-keyboard-response","131","463266","0.0-2.0-3.21","J.W.","1","pretest","true","3859074","null","","",""
"null","../img/tt/1128tt.jpg","","mooney2","image-keyboard-response","132","465268","0.0-2.0-4.21","J.W.","1","pretest","true","3859074","null","","",""
"2009","<p>How strong was your <strong>aha-experience</strong>?</p>","","aha","html-keyboard-response","133","467278","0.0-2.0-5.21","J.W.","1","pretest","true","3859074","52","../img/tt/1128tt.jpg","","4"
"null","<div style=""font-size:60px;""> </div>","","fixation","html-keyboard-response","134","467480","0.0-2.0-0.22","J.W.","1","pretest","true","3859074","null","","",""
"null","../img/tt/1259tt.jpg","","mooney1","image-keyboard-response","135","470484","0.0-2.0-1.22","J.W.","1","pretest","true","3859074","null","../img/tt/1259tt.jpg","",""
"1613","<p></p>","","recognized","html-keyboard-response","136","472099","0.0-2.0-2.22","J.W.","1","pretest","true","3859074","78","../img/tt/1259tt.jpg","n",""
"null","../img/gs/1259gs.jpg","","solution","image-keyboard-response","137","474102","0.0-2.0-3.22","J.W.","1","pretest","true","3859074","null","","",""
"null","../img/tt/1259tt.jpg","","mooney2","image-keyboard-response","138","476104","0.0-2.0-4.22","J.W.","1","pretest","true","3859074","null","","",""
"1199","<p>How strong was your <strong>aha-experience</strong>?</p>","","aha","html-keyboard-response","139","477303","0.0-2.0-5.22","J.W.","1","pretest","true","3859074","49","../img/tt/1259tt.jpg","","1"
"null","<div style=""font-size:60px;""> </div>","","fixation","html-keyboard-response","140","477505","0.0-2.0-0.23","J.W.","1","pretest","true","3859074","null","","",""
"null","../img/tt/1223tt.jpg","","mooney1","image-keyboard-response","141","480507","0.0-2.0-1.23","J.W.","1","pretest","true","3859074","null","../img/tt/1223tt.jpg","",""
"974","<p></p>","","recognized","html-keyboard-response","142","481482","0.0-2.0-2.23","J.W.","1","pretest","true","3859074","89","../img/tt/1223tt.jpg","y",""
"null","../img/gs/1223gs.jpg","","solution","image-keyboard-response","143","483485","0.0-2.0-3.23","J.W.","1","pretest","true","3859074","null","","",""
"null","../img/tt/1223tt.jpg","","mooney2","image-keyboard-response","144","485488","0.0-2.0-4.23","J.W.","1","pretest","true","3859074","null","","",""
"1196","<p>How strong was your <strong>aha-experience</strong>?</p>","","aha","html-keyboard-response","145","486685","0.0-2.0-5.23","J.W.","1","pretest","true","3859074","54","../img/tt/1223tt.jpg","","6"
"null","<div style=""font-size:60px;""> </div>","","fixation","html-keyboard-response","146","486887","0.0-2.0-0.24","J.W.","1","pretest","true","3859074","null","","",""
"null","../img/tt/118tt.jpg","","mooney1","image-keyboard-response","147","489892","0.0-2.0-1.24","J.W.","1","pretest","true","3859074","null","../img/tt/118tt.jpg","",""
"972","<p></p>","","recognized","html-keyboard-response","148","490865","0.0-2.0-2.24","J.W.","1","pretest","true","3859074","78","../img/tt/118tt.jpg","n",""
"null","../img/gs/118gs.jpg","","solution","image-keyboard-response","149","492868","0.0-2.0-3.24","J.W.","1","pretest","true","3859074","null","","",""
"null","../img/tt/118tt.jpg","","mooney2","image-keyboard-response","150","494870","0.0-2.0-4.24","J.W.","1","pretest","true","3859074","null","","",""
"578","<p>How strong was your <strong>aha-experience</strong>?</p>","","aha","html-keyboard-response","151","495450","0.0-2.0-5.24","J.W.","1","pretest","true","3859074","55","../img/tt/118tt.jpg","","7"
"null","<div style=""font-size:60px;""> </div>","","fixation","html-keyboard-response","152","495652","0.0-2.0-0.25","J.W.","1","pretest","true","3859074","null","","",""
"null","../img/tt/1237tt.jpg","","mooney1","image-keyboard-response","153","498655","0.0-2.0-1.25","J.W.","1","pretest","true","3859074","null","../img/tt/1237tt.jpg","",""
"946","<p></p>","","recognized","html-keyboard-response","154","499602","0.0-2.0-2.25","J.W.","1","pretest","true","3859074","78","../img/tt/1237tt.jpg","n",""
"null","../img/gs/1237gs.jpg","","solution","image-keyboard-response","155","501606","0.0-2.0-3.25","J.W.","1","pretest","true","3859074","null","","",""
"null","../img/tt/1237tt.jpg","","mooney2","image-keyboard-response","156","503608","0.0-2.0-4.25","J.W.","1","pretest","true","3859074","null","","",""
"1271","<p>How strong was your <strong>aha-experience</strong>?</p>","","aha","html-keyboard-response","157","504881","0.0-2.0-5.25","J.W.","1","pretest","true","3859074","52","../img/tt/1237tt.jpg","","4"
"null","<div style=""font-size:60px;""> </div>","","fixation","html-keyboard-response","158","505083","0.0-2.0-0.26","J.W.","1","pretest","true","3859074","null","","",""
"null","../img/tt/1111tt.jpg","","mooney1","image-keyboard-response","159","508088","0.0-2.0-1.26","J.W.","1","pretest","true","3859074","null","../img/tt/1111tt.jpg","",""
"1412","<p></p>","","recognized","html-keyboard-response","160","509504","0.0-2.0-2.26","J.W.","1","pretest","true","3859074","89","../img/tt/1111tt.jpg","y",""
"null","../img/gs/1111gs.jpg","","solution","image-keyboard-response","161","511508","0.0-2.0-3.26","J.W.","1","pretest","true","3859074","null","","",""
"null","../img/tt/1111tt.jpg","","mooney2","image-keyboard-response","162","513510","0.0-2.0-4.26","J.W.","1","pretest","true","3859074","null","","",""
"961","<p>How strong was your <strong>aha-experience</strong>?</p>","","aha","html-keyboard-response","163","514473","0.0-2.0-5.26","J.W.","1","pretest","true","3859074","55","../img/tt/1111tt.jpg","","7"
"null","<div style=""font-size:60px;""> </div>","","fixation","html-keyboard-response","164","514675","0.0-2.0-0.27","J.W.","1","pretest","true","3859074","null","","",""
"null","../img/tt/1006tt.jpg","","mooney1","image-keyboard-response","165","517679","0.0-2.0-1.27","J.W.","1","pretest","true","3859074","null","../img/tt/1006tt.jpg","",""
"1809","<p></p>","","recognized","html-keyboard-response","166","519490","0.0-2.0-2.27","J.W.","1","pretest","true","3859074","78","../img/tt/1006tt.jpg","n",""
"null","../img/gs/1006gs.jpg","","solution","image-keyboard-response","167","521494","0.0-2.0-3.27","J.W.","1","pretest","true","3859074","null","","",""
"null","../img/tt/1006tt.jpg","","mooney2","image-keyboard-response","168","523496","0.0-2.0-4.27","J.W.","1","pretest","true","3859074","null","","",""
"724","<p>How strong was your <strong>aha-experience</strong>?</p>","","aha","html-keyboard-response","169","524222","0.0-2.0-5.27","J.W.","1","pretest","true","3859074","53","../img/tt/1006tt.jpg","","5"
"null","<div style=""font-size:60px;""> </div>","","fixation","html-keyboard-response","170","524423","0.0-2.0-0.28","J.W.","1","pretest","true","3859074","null","","",""
"null","../img/tt/072tt.jpg","","mooney1","image-keyboard-response","171","527426","0.0-2.0-1.28","J.W.","1","pretest","true","3859074","null","../img/tt/072tt.jpg","",""
"1132","<p></p>","","recognized","html-keyboard-response","172","528559","0.0-2.0-2.28","J.W.","1","pretest","true","3859074","78","../img/tt/072tt.jpg","n",""
"null","../img/gs/072gs.jpg","","solution","image-keyboard-response","173","530562","0.0-2.0-3.28","J.W.","1","pretest","true","3859074","null","","",""
"null","../img/tt/072tt.jpg","","mooney2","image-keyboard-response","174","532565","0.0-2.0-4.28","J.W.","1","pretest","true","3859074","null","","",""
"570","<p>How strong was your <strong>aha-experience</strong>?</p>","","aha","html-keyboard-response","175","533137","0.0-2.0-5.28","J.W.","1","pretest","true","3859074","50","../img/tt/072tt.jpg","","2"
"null","<div style=""font-size:60px;""> </div>","","fixation","html-keyboard-response","176","533338","0.0-2.0-0.29","J.W.","1","pretest","true","3859074","null","","",""
"null","../img/tt/1169tt.jpg","","mooney1","image-keyboard-response","177","536341","0.0-2.0-1.29","J.W.","1","pretest","true","3859074","null","../img/tt/1169tt.jpg","",""
"1149","<p></p>","","recognized","html-keyboard-response","178","537492","0.0-2.0-2.29","J.W.","1","pretest","true","3859074","78","../img/tt/1169tt.jpg","n",""
"null","../img/gs/1169gs.jpg","","solution","image-keyboard-response","179","539495","0.0-2.0-3.29","J.W.","1","pretest","true","3859074","null","","",""
"null","../img/tt/1169tt.jpg","","mooney2","image-keyboard-response","180","541499","0.0-2.0-4.29","J.W.","1","pretest","true","3859074","null","","",""
"1551","<p>How strong was your <strong>aha-experience</strong>?</p>","","aha","html-keyboard-response","181","543052","0.0-2.0-5.29","J.W.","1","pretest","true","3859074","53","../img/tt/1169tt.jpg","","5"
"null","<div style=""font-size:60px;""> </div>","","fixation","html-keyboard-response","182","543253","0.0-2.0-0.30","J.W.","1","pretest","true","3859074","null","","",""
"null","../img/tt/1154tt.jpg","","mooney1","image-keyboard-response","183","546257","0.0-2.0-1.30","J.W.","1","pretest","true","3859074","null","../img/tt/1154tt.jpg","",""
"390","<p></p>","","recognized","html-keyboard-response","184","546648","0.0-2.0-2.30","J.W.","1","pretest","true","3859074","89","../img/tt/1154tt.jpg","y",""
"null","../img/gs/1154gs.jpg","","solution","image-keyboard-response","185","548652","0.0-2.0-3.30","J.W.","1","pretest","true","3859074","null","","",""
"null","../img/tt/1154tt.jpg","","mooney2","image-keyboard-response","186","550654","0.0-2.0-4.30","J.W.","1","pretest","true","3859074","null","","",""
"1834","<p>How strong was your <strong>aha-experience</strong>?</p>","","aha","html-keyboard-response","187","552489","0.0-2.0-5.30","J.W.","1","pretest","true","3859074","54","../img/tt/1154tt.jpg","","6"
"null","<div style=""font-size:60px;""> </div>","","fixation","html-keyboard-response","188","552692","0.0-2.0-0.31","J.W.","1","pretest","true","3859074","null","","",""
"null","../img/tt/106tt.jpg","","mooney1","image-keyboard-response","189","555696","0.0-2.0-1.31","J.W.","1","pretest","true","3859074","null","../img/tt/106tt.jpg","",""
"484","<p></p>","","recognized","html-keyboard-response","190","556181","0.0-2.0-2.31","J.W.","1","pretest","true","3859074","78","../img/tt/106tt.jpg","n",""
"null","../img/gs/106gs.jpg","","solution","image-keyboard-response","191","558185","0.0-2.0-3.31","J.W.","1","pretest","true","3859074","null","","",""
"null","../img/tt/106tt.jpg","","mooney2","image-keyboard-response","192","560187","0.0-2.0-4.31","J.W.","1","pretest","true","3859074","null","","",""
"1571","<p>How strong was your <strong>aha-experience</strong>?</p>","","aha","html-keyboard-response","193","561760","0.0-2.0-5.31","J.W.","1","pretest","true","3859074","54","../img/tt/106tt.jpg","","6"
"null","<div style=""font-size:60px;""> </div>","","fixation","html-keyboard-response","194","561964","0.0-2.0-0.32","J.W.","1","pretest","true","3859074","null","","",""
"null","../img/tt/1084tt.jpg","","mooney1","image-keyboard-response","195","564967","0.0-2.0-1.32","J.W.","1","pretest","true","3859074","null","../img/tt/1084tt.jpg","",""
"1143","<p></p>","","recognized","html-keyboard-response","196","566112","0.0-2.0-2.32","J.W.","1","pretest","true","3859074","78","../img/tt/1084tt.jpg","n",""
"null","../img/gs/1084gs.jpg","","solution","image-keyboard-response","197","568115","0.0-2.0-3.32","J.W.","1","pretest","true","3859074","null","","",""
"null","../img/tt/1084tt.jpg","","mooney2","image-keyboard-response","198","570117","0.0-2.0-4.32","J.W.","1","pretest","true","3859074","null","","",""
"1419","<p>How strong was your <strong>aha-experience</strong>?</p>","","aha","html-keyboard-response","199","571537","0.0-2.0-5.32","J.W.","1","pretest","true","3859074","53","../img/tt/1084tt.jpg","","5"
"null","<div style=""font-size:60px;""> </div>","","fixation","html-keyboard-response","200","571739","0.0-2.0-0.33","J.W.","1","pretest","true","3859074","null","","",""
"null","../img/tt/068tt.jpg","","mooney1","image-keyboard-response","201","574741","0.0-2.0-1.33","J.W.","1","pretest","true","3859074","null","../img/tt/068tt.jpg","",""
"1364","<p></p>","","recognized","html-keyboard-response","202","576105","0.0-2.0-2.33","J.W.","1","pretest","true","3859074","89","../img/tt/068tt.jpg","y",""
"null","../img/gs/068gs.jpg","","solution","image-keyboard-response","203","578108","0.0-2.0-3.33","J.W.","1","pretest","true","3859074","null","","",""
"null","../img/tt/068tt.jpg","","mooney2","image-keyboard-response","204","580110","0.0-2.0-4.33","J.W.","1","pretest","true","3859074","null","","",""
"824","<p>How strong was your <strong>aha-experience</strong>?</p>","","aha","html-keyboard-response","205","580936","0.0-2.0-5.33","J.W.","1","pretest","true","3859074","54","../img/tt/068tt.jpg","","6"
"null","<div style=""font-size:60px;""> </div>","","fixation","html-keyboard-response","206","581138","0.0-2.0-0.34","J.W.","1","pretest","true","3859074","null","","",""
"null","../img/tt/1208tt.jpg","","mooney1","image-keyboard-response","207","584141","0.0-2.0-1.34","J.W.","1","pretest","true","3859074","null","../img/tt/1208tt.jpg","",""
"1717","<p></p>","","recognized","html-keyboard-response","208","585860","0.0-2.0-2.34","J.W.","1","pretest","true","3859074","89","../img/tt/1208tt.jpg","y",""
"null","../img/gs/1208gs.jpg","","solution","image-keyboard-response","209","587863","0.0-2.0-3.34","J.W.","1","pretest","true","3859074","null","","",""
"null","../img/tt/1208tt.jpg","","mooney2","image-keyboard-response","210","589865","0.0-2.0-4.34","J.W.","1","pretest","true","3859074","null","","",""
"703","<p>How strong was your <strong>aha-experience</strong>?</p>","","aha","html-keyboard-response","211","590570","0.0-2.0-5.34","J.W.","1","pretest","true","3859074","52","../img/tt/1208tt.jpg","","4"
"null","<div style=""font-size:60px;""> </div>","","fixation","html-keyboard-response","212","590772","0.0-2.0-0.35","J.W.","1","pretest","true","3859074","null","","",""
"null","../img/tt/1087tt.jpg","","mooney1","image-keyboard-response","213","593775","0.0-2.0-1.35","J.W.","1","pretest","true","3859074","null","../img/tt/1087tt.jpg","",""
"1404","<p></p>","","recognized","html-keyboard-response","214","595181","0.0-2.0-2.35","J.W.","1","pretest","true","3859074","89","../img/tt/1087tt.jpg","y",""
"null","../img/gs/1087gs.jpg","","solution","image-keyboard-response","215","597184","0.0-2.0-3.35","J.W.","1","pretest","true","3859074","null","","",""
"null","../img/tt/1087tt.jpg","","mooney2","image-keyboard-response","216","599186","0.0-2.0-4.35","J.W.","1","pretest","true","3859074","null","","",""
"2852","<p>How strong was your <strong>aha-experience</strong>?</p>","","aha","html-keyboard-response","217","602039","0.0-2.0-5.35","J.W.","1","pretest","true","3859074","52","../img/tt/1087tt.jpg","","4"
"null","<div style=""font-size:60px;""> </div>","","fixation","html-keyboard-response","218","602241","0.0-2.0-0.36","J.W.","1","pretest","true","3859074","null","","",""
"null","../img/tt/108tt.jpg","","mooney1","image-keyboard-response","219","605243","0.0-2.0-1.36","J.W.","1","pretest","true","3859074","null","../img/tt/108tt.jpg","",""
"1354","<p></p>","","recognized","html-keyboard-response","220","606598","0.0-2.0-2.36","J.W.","1","pretest","true","3859074","78","../img/tt/108tt.jpg","n",""
"null","../img/gs/108gs.jpg","","solution","image-keyboard-response","221","608602","0.0-2.0-3.36","J.W.","1","pretest","true","3859074","null","","",""
"null","../img/tt/108tt.jpg","","mooney2","image-keyboard-response","222","610605","0.0-2.0-4.36","J.W.","1","pretest","true","3859074","null","","",""
"635","<p>How strong was your <strong>aha-experience</strong>?</p>","","aha","html-keyboard-response","223","611241","0.0-2.0-5.36","J.W.","1","pretest","true","3859074","51","../img/tt/108tt.jpg","","3"
"null","<div style=""font-size:60px;""> </div>","","fixation","html-keyboard-response","224","611443","0.0-2.0-0.37","J.W.","1","pretest","true","3859074","null","","",""
"null","../img/tt/1205tt.jpg","","mooney1","image-keyboard-response","225","614445","0.0-2.0-1.37","J.W.","1","pretest","true","3859074","null","../img/tt/1205tt.jpg","",""
"1031","<p></p>","","recognized","html-keyboard-response","226","615477","0.0-2.0-2.37","J.W.","1","pretest","true","3859074","78","../img/tt/1205tt.jpg","n",""
"null","../img/gs/1205gs.jpg","","solution","image-keyboard-response","227","617480","0.0-2.0-3.37","J.W.","1","pretest","true","3859074","null","","",""
"null","../img/tt/1205tt.jpg","","mooney2","image-keyboard-response","228","619483","0.0-2.0-4.37","J.W.","1","pretest","true","3859074","null","","",""
"1293","<p>How strong was your <strong>aha-experience</strong>?</p>","","aha","html-keyboard-response","229","620778","0.0-2.0-5.37","J.W.","1","pretest","true","3859074","53","../img/tt/1205tt.jpg","","5"
"null","<div style=""font-size:60px;""> </div>","","fixation","html-keyboard-response","230","620980","0.0-2.0-0.38","J.W.","1","pretest","true","3859074","null","","",""
"null","../img/tt/085tt.jpg","","mooney1","image-keyboard-response","231","623983","0.0-2.0-1.38","J.W.","1","pretest","true","3859074","null","../img/tt/085tt.jpg","",""
"888","<p></p>","","recognized","html-keyboard-response","232","624872","0.0-2.0-2.38","J.W.","1","pretest","true","3859074","78","../img/tt/085tt.jpg","n",""
"null","../img/gs/085gs.jpg","","solution","image-keyboard-response","233","626875","0.0-2.0-3.38","J.W.","1","pretest","true","3859074","null","","",""
"null","../img/tt/085tt.jpg","","mooney2","image-keyboard-response","234","628877","0.0-2.0-4.38","J.W.","1","pretest","true","3859074","null","","",""
"462","<p>How strong was your <strong>aha-experience</strong>?</p>","","aha","html-keyboard-response","235","629341","0.0-2.0-5.38","J.W.","1","pretest","true","3859074","50","../img/tt/085tt.jpg","","2"
"null","<div style=""font-size:60px;""> </div>","","fixation","html-keyboard-response","236","629543","0.0-2.0-0.39","J.W.","1","pretest","true","3859074","null","","",""
"null","../img/tt/1179tt.jpg","","mooney1","image-keyboard-response","237","632546","0.0-2.0-1.39","J.W.","1","pretest","true","3859074","null","../img/tt/1179tt.jpg","",""
"1842","<p></p>","","recognized","html-keyboard-response","238","634389","0.0-2.0-2.39","J.W.","1","pretest","true","3859074","89","../img/tt/1179tt.jpg","y",""
"null","../img/gs/1179gs.jpg","","solution","image-keyboard-response","239","636392","0.0-2.0-3.39","J.W.","1","pretest","true","3859074","null","","",""
"null","../img/tt/1179tt.jpg","","mooney2","image-keyboard-response","240","638395","0.0-2.0-4.39","J.W.","1","pretest","true","3859074","null","","",""
"2389","<p>How strong was your <strong>aha-experience</strong>?</p>","","aha","html-keyboard-response","241","640786","0.0-2.0-5.39","J.W.","1","pretest","true","3859074","52","../img/tt/1179tt.jpg","","4"
"null","<div style=""font-size:60px;""> </div>","","fixation","html-keyboard-response","242","640988","0.0-2.0-0.40","J.W.","1","pretest","true","3859074","null","","",""
"null","../img/tt/1248tt.jpg","","mooney1","image-keyboard-response","243","643991","0.0-2.0-1.40","J.W.","1","pretest","true","3859074","null","../img/tt/1248tt.jpg","",""
"1096","<p></p>","","recognized","html-keyboard-response","244","645088","0.0-2.0-2.40","J.W.","1","pretest","true","3859074","89","../img/tt/1248tt.jpg","y",""
"null","../img/gs/1248gs.jpg","","solution","image-keyboard-response","245","647092","0.0-2.0-3.40","J.W.","1","pretest","true","3859074","null","","",""
"null","../img/tt/1248tt.jpg","","mooney2","image-keyboard-response","246","649094","0.0-2.0-4.40","J.W.","1","pretest","true","3859074","null","","",""
"747","<p>How strong was your <strong>aha-experience</strong>?</p>","","aha","html-keyboard-response","247","649843","0.0-2.0-5.40","J.W.","1","pretest","true","3859074","55","../img/tt/1248tt.jpg","","7"
"null","<div style=""font-size:60px;""> </div>","","fixation","html-keyboard-response","248","650045","0.0-2.0-0.41","J.W.","1","pretest","true","3859074","null","","",""
"null","../img/tt/078tt.jpg","","mooney1","image-keyboard-response","249","653047","0.0-2.0-1.41","J.W.","1","pretest","true","3859074","null","../img/tt/078tt.jpg","",""
"621","<p></p>","","recognized","html-keyboard-response","250","653670","0.0-2.0-2.41","J.W.","1","pretest","true","3859074","89","../img/tt/078tt.jpg","y",""
"null","../img/gs/078gs.jpg","","solution","image-keyboard-response","251","655673","0.0-2.0-3.41","J.W.","1","pretest","true","3859074","null","","",""
"null","../img/tt/078tt.jpg","","mooney2","image-keyboard-response","252","657676","0.0-2.0-4.41","J.W.","1","pretest","true","3859074","null","","",""
"34","<p>How strong was your <strong>aha-experience</strong>?</p>","","aha","html-keyboard-response","253","657711","0.0-2.0-5.41","J.W.","1","pretest","true","3859074","55","../img/tt/078tt.jpg","","7"
"null","<div style=""font-size:60px;""> </div>","","fixation","html-keyboard-response","254","657913","0.0-2.0-0.42","J.W.","1","pretest","true","3859074","null","","",""
"null","../img/tt/1182tt.jpg","","mooney1","image-keyboard-response","255","660916","0.0-2.0-1.42","J.W.","1","pretest","true","3859074","null","../img/tt/1182tt.jpg","",""
"1190","<p></p>","","recognized","html-keyboard-response","256","662108","0.0-2.0-2.42","J.W.","1","pretest","true","3859074","89","../img/tt/1182tt.jpg","y",""
"null","../img/gs/1182gs.jpg","","solution","image-keyboard-response","257","664110","0.0-2.0-3.42","J.W.","1","pretest","true","3859074","null","","",""
"null","../img/tt/1182tt.jpg","","mooney2","image-keyboard-response","258","666113","0.0-2.0-4.42","J.W.","1","pretest","true","3859074","null","","",""
"1728","<p>How strong was your <strong>aha-experience</strong>?</p>","","aha","html-keyboard-response","259","667843","0.0-2.0-5.42","J.W.","1","pretest","true","3859074","55","../img/tt/1182tt.jpg","","7"
"null","<div style=""font-size:60px;""> </div>","","fixation","html-keyboard-response","260","668045","0.0-2.0-0.43","J.W.","1","pretest","true","3859074","null","","",""
"null","../img/tt/1098tt.jpg","","mooney1","image-keyboard-response","261","671049","0.0-2.0-1.43","J.W.","1","pretest","true","3859074","null","../img/tt/1098tt.jpg","",""
"672","<p></p>","","recognized","html-keyboard-response","262","671724","0.0-2.0-2.43","J.W.","1","pretest","true","3859074","78","../img/tt/1098tt.jpg","n",""
"null","../img/gs/1098gs.jpg","","solution","image-keyboard-response","263","673728","0.0-2.0-3.43","J.W.","1","pretest","true","3859074","null","","",""
"null","../img/tt/1098tt.jpg","","mooney2","image-keyboard-response","264","675730","0.0-2.0-4.43","J.W.","1","pretest","true","3859074","null","","",""
"751","<p>How strong was your <strong>aha-experience</strong>?</p>","","aha","html-keyboard-response","265","676483","0.0-2.0-5.43","J.W.","1","pretest","true","3859074","52","../img/tt/1098tt.jpg","","4"
"null","<div style=""font-size:60px;""> </div>","","fixation","html-keyboard-response","266","676684","0.0-2.0-0.44","J.W.","1","pretest","true","3859074","null","","",""
"null","../img/tt/1252tt.jpg","","mooney1","image-keyboard-response","267","679687","0.0-2.0-1.44","J.W.","1","pretest","true","3859074","null","../img/tt/1252tt.jpg","",""
"834","<p></p>","","recognized","html-keyboard-response","268","680523","0.0-2.0-2.44","J.W.","1","pretest","true","3859074","78","../img/tt/1252tt.jpg","n",""
"null","../img/gs/1252gs.jpg","","solution","image-keyboard-response","269","682527","0.0-2.0-3.44","J.W.","1","pretest","true","3859074","null","","",""
"null","../img/tt/1252tt.jpg","","mooney2","image-keyboard-response","270","684531","0.0-2.0-4.44","J.W.","1","pretest","true","3859074","null","","",""
"1244","<p>How strong was your <strong>aha-experience</strong>?</p>","","aha","html-keyboard-response","271","685777","0.0-2.0-5.44","J.W.","1","pretest","true","3859074","52","../img/tt/1252tt.jpg","","4"
"null","<div style=""font-size:60px;""> </div>","","fixation","html-keyboard-response","272","685979","0.0-2.0-0.45","J.W.","1","pretest","true","3859074","null","","",""
"null","../img/tt/1175tt.jpg","","mooney1","image-keyboard-response","273","688982","0.0-2.0-1.45","J.W.","1","pretest","true","3859074","null","../img/tt/1175tt.jpg","",""
"1040","<p></p>","","recognized","html-keyboard-response","274","690023","0.0-2.0-2.45","J.W.","1","pretest","true","3859074","78","../img/tt/1175tt.jpg","n",""
"null","../img/gs/1175gs.jpg","","solution","image-keyboard-response","275","692026","0.0-2.0-3.45","J.W.","1","pretest","true","3859074","null","","",""
"null","../img/tt/1175tt.jpg","","mooney2","image-keyboard-response","276","694029","0.0-2.0-4.45","J.W.","1","pretest","true","3859074","null","","",""
"4284","<p>How strong was your <strong>aha-experience</strong>?</p>","","aha","html-keyboard-response","277","698315","0.0-2.0-5.45","J.W.","1","pretest","true","3859074","52","../img/tt/1175tt.jpg","","4"
"null","<div style=""font-size:60px;""> </div>","","fixation","html-keyboard-response","278","698516","0.0-2.0-0.46","J.W.","1","pretest","true","3859074","null","","",""
"null","../img/tt/1191tt.jpg","","mooney1","image-keyboard-response","279","701520","0.0-2.0-1.46","J.W.","1","pretest","true","3859074","null","../img/tt/1191tt.jpg","",""
"951","<p></p>","","recognized","html-keyboard-response","280","702473","0.0-2.0-2.46","J.W.","1","pretest","true","3859074","78","../img/tt/1191tt.jpg","n",""
"null","../img/gs/1191gs.jpg","","solution","image-keyboard-response","281","704476","0.0-2.0-3.46","J.W.","1","pretest","true","3859074","null","","",""
"null","../img/tt/1191tt.jpg","","mooney2","image-keyboard-response","282","706479","0.0-2.0-4.46","J.W.","1","pretest","true","3859074","null","","",""
"425","<p>How strong was your <strong>aha-experience</strong>?</p>","","aha","html-keyboard-response","283","706905","0.0-2.0-5.46","J.W.","1","pretest","true","3859074","49","../img/tt/1191tt.jpg","","1"
"null","<div style=""font-size:60px;""> </div>","","fixation","html-keyboard-response","284","707108","0.0-2.0-0.47","J.W.","1","pretest","true","3859074","null","","",""
"null","../img/tt/1008tt.jpg","","mooney1","image-keyboard-response","285","710112","0.0-2.0-1.47","J.W.","1","pretest","true","3859074","null","../img/tt/1008tt.jpg","",""
"749","<p></p>","","recognized","html-keyboard-response","286","710862","0.0-2.0-2.47","J.W.","1","pretest","true","3859074","78","../img/tt/1008tt.jpg","n",""
"null","../img/gs/1008gs.jpg","","solution","image-keyboard-response","287","712865","0.0-2.0-3.47","J.W.","1","pretest","true","3859074","null","","",""
"null","../img/tt/1008tt.jpg","","mooney2","image-keyboard-response","288","714867","0.0-2.0-4.47","J.W.","1","pretest","true","3859074","null","","",""
"1720","<p>How strong was your <strong>aha-experience</strong>?</p>","","aha","html-keyboard-response","289","716589","0.0-2.0-5.47","J.W.","1","pretest","true","3859074","49","../img/tt/1008tt.jpg","","1"
"null","<div style=""font-size:60px;""> </div>","","fixation","html-keyboard-response","290","716794","0.0-2.0-0.48","J.W.","1","pretest","true","3859074","null","","",""
"null","../img/tt/1286tt.jpg","","mooney1","image-keyboard-response","291","719797","0.0-2.0-1.48","J.W.","1","pretest","true","3859074","null","../img/tt/1286tt.jpg","",""
"1157","<p></p>","","recognized","html-keyboard-response","292","720954","0.0-2.0-2.48","J.W.","1","pretest","true","3859074","89","../img/tt/1286tt.jpg","y",""
"null","../img/gs/1286gs.jpg","","solution","image-keyboard-response","293","722958","0.0-2.0-3.48","J.W.","1","pretest","true","3859074","null","","",""
"null","../img/tt/1286tt.jpg","","mooney2","image-keyboard-response","294","724959","0.0-2.0-4.48","J.W.","1","pretest","true","3859074","null","","",""
"331","<p>How strong was your <strong>aha-experience</strong>?</p>","","aha","html-keyboard-response","295","725291","0.0-2.0-5.48","J.W.","1","pretest","true","3859074","55","../img/tt/1286tt.jpg","","7"
"null","<div style=""font-size:60px;""> </div>","","fixation","html-keyboard-response","296","725493","0.0-2.0-0.49","J.W.","1","pretest","true","3859074","null","","",""
"null","../img/tt/1261tt.jpg","","mooney1","image-keyboard-response","297","728496","0.0-2.0-1.49","J.W.","1","pretest","true","3859074","null","../img/tt/1261tt.jpg","",""
"1043","<p></p>","","recognized","html-keyboard-response","298","729540","0.0-2.0-2.49","J.W.","1","pretest","true","3859074","78","../img/tt/1261tt.jpg","n",""
"null","../img/gs/1261gs.jpg","","solution","image-keyboard-response","299","731546","0.0-2.0-3.49","J.W.","1","pretest","true","3859074","null","","",""
"null","../img/tt/1261tt.jpg","","mooney2","image-keyboard-response","300","733549","0.0-2.0-4.49","J.W.","1","pretest","true","3859074","null","","",""
"860","<p>How strong was your <strong>aha-experience</strong>?</p>","","aha","html-keyboard-response","301","734411","0.0-2.0-5.49","J.W.","1","pretest","true","3859074","53","../img/tt/1261tt.jpg","","5"
"null","<div style=""font-size:60px;""> </div>","","fixation","html-keyboard-response","302","734613","0.0-2.0-0.50","J.W.","1","pretest","true","3859074","null","","",""
"null","../img/tt/1018tt.jpg","","mooney1","image-keyboard-response","303","737617","0.0-2.0-1.50","J.W.","1","pretest","true","3859074","null","../img/tt/1018tt.jpg","",""
"1238","<p></p>","","recognized","html-keyboard-response","304","738856","0.0-2.0-2.50","J.W.","1","pretest","true","3859074","78","../img/tt/1018tt.jpg","n",""
"null","../img/gs/1018gs.jpg","","solution","image-keyboard-response","305","740858","0.0-2.0-3.50","J.W.","1","pretest","true","3859074","null","","",""
"null","../img/tt/1018tt.jpg","","mooney2","image-keyboard-response","306","742861","0.0-2.0-4.50","J.W.","1","pretest","true","3859074","null","","",""
"3446","<p>How strong was your <strong>aha-experience</strong>?</p>","","aha","html-keyboard-response","307","746308","0.0-2.0-5.50","J.W.","1","pretest","true","3859074","50","../img/tt/1018tt.jpg","","2"
"null","<div style=""font-size:60px;""> </div>","","fixation","html-keyboard-response","308","746510","0.0-2.0-0.51","J.W.","1","pretest","true","3859074","null","","",""
"null","../img/tt/1044tt.jpg","","mooney1","image-keyboard-response","309","749514","0.0-2.0-1.51","J.W.","1","pretest","true","3859074","null","../img/tt/1044tt.jpg","",""
"362","<p></p>","","recognized","html-keyboard-response","310","749876","0.0-2.0-2.51","J.W.","1","pretest","true","3859074","78","../img/tt/1044tt.jpg","n",""
"null","../img/gs/1044gs.jpg","","solution","image-keyboard-response","311","751879","0.0-2.0-3.51","J.W.","1","pretest","true","3859074","null","","",""
"null","../img/tt/1044tt.jpg","","mooney2","image-keyboard-response","312","753882","0.0-2.0-4.51","J.W.","1","pretest","true","3859074","null","","",""
"2205","<p>How strong was your <strong>aha-experience</strong>?</p>","","aha","html-keyboard-response","313","756089","0.0-2.0-5.51","J.W.","1","pretest","true","3859074","50","../img/tt/1044tt.jpg","","2"
"null","<div style=""font-size:60px;""> </div>","","fixation","html-keyboard-response","314","756291","0.0-2.0-0.52","J.W.","1","pretest","true","3859074","null","","",""
"null","../img/tt/065tt.jpg","","mooney1","image-keyboard-response","315","759294","0.0-2.0-1.52","J.W.","1","pretest","true","3859074","null","../img/tt/065tt.jpg","",""
"569","<p></p>","","recognized","html-keyboard-response","316","759864","0.0-2.0-2.52","J.W.","1","pretest","true","3859074","78","../img/tt/065tt.jpg","n",""
"null","../img/gs/065gs.jpg","","solution","image-keyboard-response","317","761867","0.0-2.0-3.52","J.W.","1","pretest","true","3859074","null","","",""
"null","../img/tt/065tt.jpg","","mooney2","image-keyboard-response","318","763869","0.0-2.0-4.52","J.W.","1","pretest","true","3859074","null","","",""
"1373","<p>How strong was your <strong>aha-experience</strong>?</p>","","aha","html-keyboard-response","319","765244","0.0-2.0-5.52","J.W.","1","pretest","true","3859074","49","../img/tt/065tt.jpg","","1"
"null","<div style=""font-size:60px;""> </div>","","fixation","html-keyboard-response","320","765445","0.0-2.0-0.53","J.W.","1","pretest","true","3859074","null","","",""
"null","../img/tt/1194tt.jpg","","mooney1","image-keyboard-response","321","768448","0.0-2.0-1.53","J.W.","1","pretest","true","3859074","null","../img/tt/1194tt.jpg","",""
"1675","<p></p>","","recognized","html-keyboard-response","322","770125","0.0-2.0-2.53","J.W.","1","pretest","true","3859074","89","../img/tt/1194tt.jpg","y",""
"null","../img/gs/1194gs.jpg","","solution","image-keyboard-response","323","772128","0.0-2.0-3.53","J.W.","1","pretest","true","3859074","null","","",""
"null","../img/tt/1194tt.jpg","","mooney2","image-keyboard-response","324","774130","0.0-2.0-4.53","J.W.","1","pretest","true","3859074","null","","",""
"891","<p>How strong was your <strong>aha-experience</strong>?</p>","","aha","html-keyboard-response","325","775023","0.0-2.0-5.53","J.W.","1","pretest","true","3859074","52","../img/tt/1194tt.jpg","","4"
"null","<div style=""font-size:60px;""> </div>","","fixation","html-keyboard-response","326","775235","0.0-2.0-0.54","J.W.","1","pretest","true","3859074","null","","",""
"null","../img/tt/1053tt.jpg","","mooney1","image-keyboard-response","327","778240","0.0-2.0-1.54","J.W.","1","pretest","true","3859074","null","../img/tt/1053tt.jpg","",""
"2699","<p></p>","","recognized","html-keyboard-response","328","780940","0.0-2.0-2.54","J.W.","1","pretest","true","3859074","78","../img/tt/1053tt.jpg","n",""
"null","../img/gs/1053gs.jpg","","solution","image-keyboard-response","329","782943","0.0-2.0-3.54","J.W.","1","pretest","true","3859074","null","","",""
"null","../img/tt/1053tt.jpg","","mooney2","image-keyboard-response","330","784945","0.0-2.0-4.54","J.W.","1","pretest","true","3859074","null","","",""
"785","<p>How strong was your <strong>aha-experience</strong>?</p>","","aha","html-keyboard-response","331","785732","0.0-2.0-5.54","J.W.","1","pretest","true","3859074","53","../img/tt/1053tt.jpg","","5"
"null","<div style=""font-size:60px;""> </div>","","fixation","html-keyboard-response","332","785934","0.0-2.0-0.55","J.W.","1","pretest","true","3859074","null","","",""
"null","../img/tt/009tt.jpg","","mooney1","image-keyboard-response","333","788937","0.0-2.0-1.55","J.W.","1","pretest","true","3859074","null","../img/tt/009tt.jpg","",""
"1348","<p></p>","","recognized","html-keyboard-response","334","790286","0.0-2.0-2.55","J.W.","1","pretest","true","3859074","78","../img/tt/009tt.jpg","n",""
"null","../img/gs/009gs.jpg","","solution","image-keyboard-response","335","792290","0.0-2.0-3.55","J.W.","1","pretest","true","3859074","null","","",""
"null","../img/tt/009tt.jpg","","mooney2","image-keyboard-response","336","794292","0.0-2.0-4.55","J.W.","1","pretest","true","3859074","null","","",""
"1758","<p>How strong was your <strong>aha-experience</strong>?</p>","","aha","html-keyboard-response","337","796052","0.0-2.0-5.55","J.W.","1","pretest","true","3859074","49","../img/tt/009tt.jpg","","1"
"null","<div style=""font-size:60px;""> </div>","","fixation","html-keyboard-response","338","796254","0.0-2.0-0.56","J.W.","1","pretest","true","3859074","null","","",""
"null","../img/tt/1256tt.jpg","","mooney1","image-keyboard-response","339","799257","0.0-2.0-1.56","J.W.","1","pretest","true","3859074","null","../img/tt/1256tt.jpg","",""
"391","<p></p>","","recognized","html-keyboard-response","340","799649","0.0-2.0-2.56","J.W.","1","pretest","true","3859074","89","../img/tt/1256tt.jpg","y",""
"null","../img/gs/1256gs.jpg","","solution","image-keyboard-response","341","801653","0.0-2.0-3.56","J.W.","1","pretest","true","3859074","null","","",""
"null","../img/tt/1256tt.jpg","","mooney2","image-keyboard-response","342","803655","0.0-2.0-4.56","J.W.","1","pretest","true","3859074","null","","",""
"1249","<p>How strong was your <strong>aha-experience</strong>?</p>","","aha","html-keyboard-response","343","804905","0.0-2.0-5.56","J.W.","1","pretest","true","3859074","55","../img/tt/1256tt.jpg","","7"
"null","<div style=""font-size:60px;""> </div>","","fixation","html-keyboard-response","344","805108","0.0-2.0-0.57","J.W.","1","pretest","true","3859074","null","","",""
"null","../img/tt/1161tt.jpg","","mooney1","image-keyboard-response","345","808111","0.0-2.0-1.57","J.W.","1","pretest","true","3859074","null","../img/tt/1161tt.jpg","",""
"1213","<p></p>","","recognized","html-keyboard-response","346","809325","0.0-2.0-2.57","J.W.","1","pretest","true","3859074","78","../img/tt/1161tt.jpg","n",""
"null","../img/gs/1161gs.jpg","","solution","image-keyboard-response","347","811327","0.0-2.0-3.57","J.W.","1","pretest","true","3859074","null","","",""
"null","../img/tt/1161tt.jpg","","mooney2","image-keyboard-response","348","813330","0.0-2.0-4.57","J.W.","1","pretest","true","3859074","null","","",""
"720","<p>How strong was your <strong>aha-experience</strong>?</p>","","aha","html-keyboard-response","349","814050","0.0-2.0-5.57","J.W.","1","pretest","true","3859074","53","../img/tt/1161tt.jpg","","5"
"null","<div style=""font-size:60px;""> </div>","","fixation","html-keyboard-response","350","814252","0.0-2.0-0.58","J.W.","1","pretest","true","3859074","null","","",""
"null","../img/tt/1149tt.jpg","","mooney1","image-keyboard-response","351","817254","0.0-2.0-1.58","J.W.","1","pretest","true","3859074","null","../img/tt/1149tt.jpg","",""
"1142","<p></p>","","recognized","html-keyboard-response","352","818397","0.0-2.0-2.58","J.W.","1","pretest","true","3859074","89","../img/tt/1149tt.jpg","y",""
"null","../img/gs/1149gs.jpg","","solution","image-keyboard-response","353","820401","0.0-2.0-3.58","J.W.","1","pretest","true","3859074","null","","",""
"null","../img/tt/1149tt.jpg","","mooney2","image-keyboard-response","354","822403","0.0-2.0-4.58","J.W.","1","pretest","true","3859074","null","","",""
"125","<p>How strong was your <strong>aha-experience</strong>?</p>","","aha","html-keyboard-response","355","822529","0.0-2.0-5.58","J.W.","1","pretest","true","3859074","54","../img/tt/1149tt.jpg","","6"
"null","<div style=""font-size:60px;""> </div>","","fixation","html-keyboard-response","356","822731","0.0-2.0-0.59","J.W.","1","pretest","true","3859074","null","","",""
"null","../img/tt/1264tt.jpg","","mooney1","image-keyboard-response","357","825735","0.0-2.0-1.59","J.W.","1","pretest","true","3859074","null","../img/tt/1264tt.jpg","",""
"1068","<p></p>","","recognized","html-keyboard-response","358","826804","0.0-2.0-2.59","J.W.","1","pretest","true","3859074","89","../img/tt/1264tt.jpg","y",""
"null","../img/gs/1264gs.jpg","","solution","image-keyboard-response","359","828807","0.0-2.0-3.59","J.W.","1","pretest","true","3859074","null","","",""
"null","../img/tt/1264tt.jpg","","mooney2","image-keyboard-response","360","830810","0.0-2.0-4.59","J.W.","1","pretest","true","3859074","null","","",""
"667","<p>How strong was your <strong>aha-experience</strong>?</p>","","aha","html-keyboard-response","361","831478","0.0-2.0-5.59","J.W.","1","pretest","true","3859074","53","../img/tt/1264tt.jpg","","5"
"null","<div style=""font-size:60px;""> </div>","","fixation","html-keyboard-response","362","831680","0.0-2.0-0.60","J.W.","1","pretest","true","3859074","null","","",""
"null","../img/tt/1133tt.jpg","","mooney1","image-keyboard-response","363","834682","0.0-2.0-1.60","J.W.","1","pretest","true","3859074","null","../img/tt/1133tt.jpg","",""
"1161","<p></p>","","recognized","html-keyboard-response","364","835845","0.0-2.0-2.60","J.W.","1","pretest","true","3859074","89","../img/tt/1133tt.jpg","y",""
"null","../img/gs/1133gs.jpg","","solution","image-keyboard-response","365","837846","0.0-2.0-3.60","J.W.","1","pretest","true","3859074","null","","",""
"null","../img/tt/1133tt.jpg","","mooney2","image-keyboard-response","366","839849","0.0-2.0-4.60","J.W.","1","pretest","true","3859074","null","","",""
"1031","<p>How strong was your <strong>aha-experience</strong>?</p>","","aha","html-keyboard-response","367","840880","0.0-2.0-5.60","J.W.","1","pretest","true","3859074","55","../img/tt/1133tt.jpg","","7"
"null","<div style=""font-size:60px;""> </div>","","fixation","html-keyboard-response","368","841082","0.0-2.0-0.61","J.W.","1","pretest","true","3859074","null","","",""
"null","../img/tt/111tt.jpg","","mooney1","image-keyboard-response","369","844086","0.0-2.0-1.61","J.W.","1","pretest","true","3859074","null","../img/tt/111tt.jpg","",""
"620","<p></p>","","recognized","html-keyboard-response","370","844707","0.0-2.0-2.61","J.W.","1","pretest","true","3859074","78","../img/tt/111tt.jpg","n",""
"null","../img/gs/111gs.jpg","","solution","image-keyboard-response","371","846712","0.0-2.0-3.61","J.W.","1","pretest","true","3859074","null","","",""
"null","../img/tt/111tt.jpg","","mooney2","image-keyboard-response","372","848715","0.0-2.0-4.61","J.W.","1","pretest","true","3859074","null","","",""
"490","<p>How strong was your <strong>aha-experience</strong>?</p>","","aha","html-keyboard-response","373","849206","0.0-2.0-5.61","J.W.","1","pretest","true","3859074","52","../img/tt/111tt.jpg","","4"
"null","<div style=""font-size:60px;""> </div>","","fixation","html-keyboard-response","374","849409","0.0-2.0-0.62","J.W.","1","pretest","true","3859074","null","","",""
"null","../img/tt/1276tt.jpg","","mooney1","image-keyboard-response","375","852411","0.0-2.0-1.62","J.W.","1","pretest","true","3859074","null","../img/tt/1276tt.jpg","",""
"986","<p></p>","","recognized","html-keyboard-response","376","853398","0.0-2.0-2.62","J.W.","1","pretest","true","3859074","78","../img/tt/1276tt.jpg","n",""
"null","../img/gs/1276gs.jpg","","solution","image-keyboard-response","377","855401","0.0-2.0-3.62","J.W.","1","pretest","true","3859074","null","","",""
"null","../img/tt/1276tt.jpg","","mooney2","image-keyboard-response","378","857404","0.0-2.0-4.62","J.W.","1","pretest","true","3859074","null","","",""
"920","<p>How strong was your <strong>aha-experience</strong>?</p>","","aha","html-keyboard-response","379","858326","0.0-2.0-5.62","J.W.","1","pretest","true","3859074","53","../img/tt/1276tt.jpg","","5"
"null","<div style=""font-size:60px;""> </div>","","fixation","html-keyboard-response","380","858528","0.0-2.0-0.63","J.W.","1","pretest","true","3859074","null","","",""
"null","../img/tt/048tt.jpg","","mooney1","image-keyboard-response","381","861531","0.0-2.0-1.63","J.W.","1","pretest","true","3859074","null","../img/tt/048tt.jpg","",""
"401","<p></p>","","recognized","html-keyboard-response","382","861933","0.0-2.0-2.63","J.W.","1","pretest","true","3859074","78","../img/tt/048tt.jpg","n",""
"null","../img/gs/048gs.jpg","","solution","image-keyboard-response","383","863937","0.0-2.0-3.63","J.W.","1","pretest","true","3859074","null","","",""
"null","../img/tt/048tt.jpg","","mooney2","image-keyboard-response","384","865939","0.0-2.0-4.63","J.W.","1","pretest","true","3859074","null","","",""
"154","<p>How strong was your <strong>aha-experience</strong>?</p>","","aha","html-keyboard-response","385","866095","0.0-2.0-5.63","J.W.","1","pretest","true","3859074","49","../img/tt/048tt.jpg","","1"
"null","<div style=""font-size:60px;""> </div>","","fixation","html-keyboard-response","386","866298","0.0-2.0-0.64","J.W.","1","pretest","true","3859074","null","","",""
"null","../img/tt/1029tt.jpg","","mooney1","image-keyboard-response","387","869300","0.0-2.0-1.64","J.W.","1","pretest","true","3859074","null","../img/tt/1029tt.jpg","",""
"1275","<p></p>","","recognized","html-keyboard-response","388","870576","0.0-2.0-2.64","J.W.","1","pretest","true","3859074","89","../img/tt/1029tt.jpg","y",""
"null","../img/gs/1029gs.jpg","","solution","image-keyboard-response","389","872579","0.0-2.0-3.64","J.W.","1","pretest","true","3859074","null","","",""
"null","../img/tt/1029tt.jpg","","mooney2","image-keyboard-response","390","874581","0.0-2.0-4.64","J.W.","1","pretest","true","3859074","null","","",""
"113","<p>How strong was your <strong>aha-experience</strong>?</p>","","aha","html-keyboard-response","391","874695","0.0-2.0-5.64","J.W.","1","pretest","true","3859074","53","../img/tt/1029tt.jpg","","5"
"null","<div style=""font-size:60px;""> </div>","","fixation","html-keyboard-response","392","874897","0.0-2.0-0.65","J.W.","1","pretest","true","3859074","null","","",""
"null","../img/tt/1070tt.jpg","","mooney1","image-keyboard-response","393","877901","0.0-2.0-1.65","J.W.","1","pretest","true","3859074","null","../img/tt/1070tt.jpg","",""
"1143","<p></p>","","recognized","html-keyboard-response","394","879044","0.0-2.0-2.65","J.W.","1","pretest","true","3859074","89","../img/tt/1070tt.jpg","y",""
"null","../img/gs/1070gs.jpg","","solution","image-keyboard-response","395","881047","0.0-2.0-3.65","J.W.","1","pretest","true","3859074","null","","",""
"null","../img/tt/1070tt.jpg","","mooney2","image-keyboard-response","396","883049","0.0-2.0-4.65","J.W.","1","pretest","true","3859074","null","","",""
"1209","<p>How strong was your <strong>aha-experience</strong>?</p>","","aha","html-keyboard-response","397","884260","0.0-2.0-5.65","J.W.","1","pretest","true","3859074","52","../img/tt/1070tt.jpg","","4"
"null","<div style=""font-size:60px;""> </div>","","fixation","html-keyboard-response","398","884463","0.0-2.0-0.66","J.W.","1","pretest","true","3859074","null","","",""
"null","../img/tt/1231tt.jpg","","mooney1","image-keyboard-response","399","887466","0.0-2.0-1.66","J.W.","1","pretest","true","3859074","null","../img/tt/1231tt.jpg","",""
"793","<p></p>","","recognized","html-keyboard-response","400","888260","0.0-2.0-2.66","J.W.","1","pretest","true","3859074","78","../img/tt/1231tt.jpg","n",""
"null","../img/gs/1231gs.jpg","","solution","image-keyboard-response","401","890264","0.0-2.0-3.66","J.W.","1","pretest","true","3859074","null","","",""
"null","../img/tt/1231tt.jpg","","mooney2","image-keyboard-response","402","892266","0.0-2.0-4.66","J.W.","1","pretest","true","3859074","null","","",""
"431","<p>How strong was your <strong>aha-experience</strong>?</p>","","aha","html-keyboard-response","403","892698","0.0-2.0-5.66","J.W.","1","pretest","true","3859074","53","../img/tt/1231tt.jpg","","5"
"null","<div style=""font-size:60px;""> </div>","","fixation","html-keyboard-response","404","892903","0.0-2.0-0.67","J.W.","1","pretest","true","3859074","null","","",""
"null","../img/tt/099tt.jpg","","mooney1","image-keyboard-response","405","895906","0.0-2.0-1.67","J.W.","1","pretest","true","3859074","null","../img/tt/099tt.jpg","",""
"595","<p></p>","","recognized","html-keyboard-response","406","896503","0.0-2.0-2.67","J.W.","1","pretest","true","3859074","78","../img/tt/099tt.jpg","n",""
"null","../img/gs/099gs.jpg","","solution","image-keyboard-response","407","898506","0.0-2.0-3.67","J.W.","1","pretest","true","3859074","null","","",""
"null","../img/tt/099tt.jpg","","mooney2","image-keyboard-response","408","900508","0.0-2.0-4.67","J.W.","1","pretest","true","3859074","null","","",""
"379","<p>How strong was your <strong>aha-experience</strong>?</p>","","aha","html-keyboard-response","409","900889","0.0-2.0-5.67","J.W.","1","pretest","true","3859074","49","../img/tt/099tt.jpg","","1"
"null","<div style=""font-size:60px;""> </div>","","fixation","html-keyboard-response","410","901092","0.0-2.0-0.68","J.W.","1","pretest","true","3859074","null","","",""
"null","../img/tt/1138tt.jpg","","mooney1","image-keyboard-response","411","904095","0.0-2.0-1.68","J.W.","1","pretest","true","3859074","null","../img/tt/1138tt.jpg","",""
"430","<p></p>","","recognized","html-keyboard-response","412","904525","0.0-2.0-2.68","J.W.","1","pretest","true","3859074","89","../img/tt/1138tt.jpg","y",""
"null","../img/gs/1138gs.jpg","","solution","image-keyboard-response","413","906526","0.0-2.0-3.68","J.W.","1","pretest","true","3859074","null","","",""
"null","../img/tt/1138tt.jpg","","mooney2","image-keyboard-response","414","908529","0.0-2.0-4.68","J.W.","1","pretest","true","3859074","null","","",""
"344","<p>How strong was your <strong>aha-experience</strong>?</p>","","aha","html-keyboard-response","415","908875","0.0-2.0-5.68","J.W.","1","pretest","true","3859074","55","../img/tt/1138tt.jpg","","7"
"null","<div style=""font-size:60px;""> </div>","","fixation","html-keyboard-response","416","909078","0.0-2.0-0.69","J.W.","1","pretest","true","3859074","null","","",""
"null","../img/tt/1187tt.jpg","","mooney1","image-keyboard-response","417","912081","0.0-2.0-1.69","J.W.","1","pretest","true","3859074","null","../img/tt/1187tt.jpg","",""
"2133","<p></p>","","recognized","html-keyboard-response","418","914216","0.0-2.0-2.69","J.W.","1","pretest","true","3859074","89","../img/tt/1187tt.jpg","y",""
"null","../img/gs/1187gs.jpg","","solution","image-keyboard-response","419","916219","0.0-2.0-3.69","J.W.","1","pretest","true","3859074","null","","",""
"null","../img/tt/1187tt.jpg","","mooney2","image-keyboard-response","420","918221","0.0-2.0-4.69","J.W.","1","pretest","true","3859074","null","","",""
"2443","<p>How strong was your <strong>aha-experience</strong>?</p>","","aha","html-keyboard-response","421","920665","0.0-2.0-5.69","J.W.","1","pretest","true","3859074","53","../img/tt/1187tt.jpg","","5"
"null","<div style=""font-size:60px;""> </div>","","fixation","html-keyboard-response","422","920868","0.0-2.0-0.70","J.W.","1","pretest","true","3859074","null","","",""
"null","../img/tt/062tt.jpg","","mooney1","image-keyboard-response","423","923872","0.0-2.0-1.70","J.W.","1","pretest","true","3859074","null","../img/tt/062tt.jpg","",""
"946","<p></p>","","recognized","html-keyboard-response","424","924818","0.0-2.0-2.70","J.W.","1","pretest","true","3859074","78","../img/tt/062tt.jpg","n",""
"null","../img/gs/062gs.jpg","","solution","image-keyboard-response","425","926822","0.0-2.0-3.70","J.W.","1","pretest","true","3859074","null","","",""
"null","../img/tt/062tt.jpg","","mooney2","image-keyboard-response","426","928824","0.0-2.0-4.70","J.W.","1","pretest","true","3859074","null","","",""
"1126","<p>How strong was your <strong>aha-experience</strong>?</p>","","aha","html-keyboard-response","427","929951","0.0-2.0-5.70","J.W.","1","pretest","true","3859074","50","../img/tt/062tt.jpg","","2"
"null","<div style=""font-size:60px;""> </div>","","fixation","html-keyboard-response","428","930154","0.0-2.0-0.71","J.W.","1","pretest","true","3859074","null","","",""
"null","../img/tt/1164tt.jpg","","mooney1","image-keyboard-response","429","933157","0.0-2.0-1.71","J.W.","1","pretest","true","3859074","null","../img/tt/1164tt.jpg","",""
"1214","<p></p>","","recognized","html-keyboard-response","430","934373","0.0-2.0-2.71","J.W.","1","pretest","true","3859074","78","../img/tt/1164tt.jpg","n",""
"null","../img/gs/1164gs.jpg","","solution","image-keyboard-response","431","936376","0.0-2.0-3.71","J.W.","1","pretest","true","3859074","null","","",""
"null","../img/tt/1164tt.jpg","","mooney2","image-keyboard-response","432","938379","0.0-2.0-4.71","J.W.","1","pretest","true","3859074","null","","",""
"1742","<p>How strong was your <strong>aha-experience</strong>?</p>","","aha","html-keyboard-response","433","940123","0.0-2.0-5.71","J.W.","1","pretest","true","3859074","52","../img/tt/1164tt.jpg","","4"
"null","<div style=""font-size:60px;""> </div>","","fixation","html-keyboard-response","434","940323","0.0-2.0-0.72","J.W.","1","pretest","true","3859074","null","","",""
"null","../img/tt/1100tt.jpg","","mooney1","image-keyboard-response","435","943325","0.0-2.0-1.72","J.W.","1","pretest","true","3859074","null","../img/tt/1100tt.jpg","",""
"1073","<p></p>","","recognized","html-keyboard-response","436","944400","0.0-2.0-2.72","J.W.","1","pretest","true","3859074","89","../img/tt/1100tt.jpg","y",""
"null","../img/gs/1100gs.jpg","","solution","image-keyboard-response","437","946402","0.0-2.0-3.72","J.W.","1","pretest","true","3859074","null","","",""
"null","../img/tt/1100tt.jpg","","mooney2","image-keyboard-response","438","948405","0.0-2.0-4.72","J.W.","1","pretest","true","3859074","null","","",""
"934","<p>How strong was your <strong>aha-experience</strong>?</p>","","aha","html-keyboard-response","439","949340","0.0-2.0-5.72","J.W.","1","pretest","true","3859074","53","../img/tt/1100tt.jpg","","5"
"null","<div style=""font-size:60px;""> </div>","","fixation","html-keyboard-response","440","949543","0.0-2.0-0.73","J.W.","1","pretest","true","3859074","null","","",""
"null","../img/tt/1037tt.jpg","","mooney1","image-keyboard-response","441","952547","0.0-2.0-1.73","J.W.","1","pretest","true","3859074","null","../img/tt/1037tt.jpg","",""
"1136","<p></p>","","recognized","html-keyboard-response","442","953685","0.0-2.0-2.73","J.W.","1","pretest","true","3859074","78","../img/tt/1037tt.jpg","n",""
"null","../img/gs/1037gs.jpg","","solution","image-keyboard-response","443","955687","0.0-2.0-3.73","J.W.","1","pretest","true","3859074","null","","",""
"null","../img/tt/1037tt.jpg","","mooney2","image-keyboard-response","444","957689","0.0-2.0-4.73","J.W.","1","pretest","true","3859074","null","","",""
"1288","<p>How strong was your <strong>aha-experience</strong>?</p>","","aha","html-keyboard-response","445","958979","0.0-2.0-5.73","J.W.","1","pretest","true","3859074","50","../img/tt/1037tt.jpg","","2"
"null","<div style=""font-size:60px;""> </div>","","fixation","html-keyboard-response","446","959181","0.0-2.0-0.74","J.W.","1","pretest","true","3859074","null","","",""
"null","../img/tt/1253tt.jpg","","mooney1","image-keyboard-response","447","962184","0.0-2.0-1.74","J.W.","1","pretest","true","3859074","null","../img/tt/1253tt.jpg","",""
"904","<p></p>","","recognized","html-keyboard-response","448","963090","0.0-2.0-2.74","J.W.","1","pretest","true","3859074","89","../img/tt/1253tt.jpg","y",""
"null","../img/gs/1253gs.jpg","","solution","image-keyboard-response","449","965095","0.0-2.0-3.74","J.W.","1","pretest","true","3859074","null","","",""
"null","../img/tt/1253tt.jpg","","mooney2","image-keyboard-response","450","967097","0.0-2.0-4.74","J.W.","1","pretest","true","3859074","null","","",""
"195","<p>How strong was your <strong>aha-experience</strong>?</p>","","aha","html-keyboard-response","451","967294","0.0-2.0-5.74","J.W.","1","pretest","true","3859074","53","../img/tt/1253tt.jpg","","5"
"null","<div style=""font-size:60px;""> </div>","","fixation","html-keyboard-response","452","967496","0.0-2.0-0.75","J.W.","1","pretest","true","3859074","null","","",""
"null","../img/tt/1228tt.jpg","","mooney1","image-keyboard-response","453","970498","0.0-2.0-1.75","J.W.","1","pretest","true","3859074","null","../img/tt/1228tt.jpg","",""
"1407","<p></p>","","recognized","html-keyboard-response","454","971907","0.0-2.0-2.75","J.W.","1","pretest","true","3859074","78","../img/tt/1228tt.jpg","n",""
"null","../img/gs/1228gs.jpg","","solution","image-keyboard-response","455","973910","0.0-2.0-3.75","J.W.","1","pretest","true","3859074","null","","",""
"null","../img/tt/1228tt.jpg","","mooney2","image-keyboard-response","456","975912","0.0-2.0-4.75","J.W.","1","pretest","true","3859074","null","","",""
"1766","<p>How strong was your <strong>aha-experience</strong>?</p>","","aha","html-keyboard-response","457","977680","0.0-2.0-5.75","J.W.","1","pretest","true","3859074","52","../img/tt/1228tt.jpg","","4"
"null","<div style=""font-size:60px;""> </div>","","fixation","html-keyboard-response","458","977882","0.0-2.0-0.76","J.W.","1","pretest","true","3859074","null","","",""
"null","../img/tt/1125tt.jpg","","mooney1","image-keyboard-response","459","980885","0.0-2.0-1.76","J.W.","1","pretest","true","3859074","null","../img/tt/1125tt.jpg","",""
"802","<p></p>","","recognized","html-keyboard-response","460","981688","0.0-2.0-2.76","J.W.","1","pretest","true","3859074","78","../img/tt/1125tt.jpg","n",""
"null","../img/gs/1125gs.jpg","","solution","image-keyboard-response","461","983691","0.0-2.0-3.76","J.W.","1","pretest","true","3859074","null","","",""
"null","../img/tt/1125tt.jpg","","mooney2","image-keyboard-response","462","985693","0.0-2.0-4.76","J.W.","1","pretest","true","3859074","null","","",""
"1071","<p>How strong was your <strong>aha-experience</strong>?</p>","","aha","html-keyboard-response","463","986765","0.0-2.0-5.76","J.W.","1","pretest","true","3859074","49","../img/tt/1125tt.jpg","","1"
"null","<div style=""font-size:60px;""> </div>","","fixation","html-keyboard-response","464","986967","0.0-2.0-0.77","J.W.","1","pretest","true","3859074","null","","",""
"null","../img/tt/1163tt.jpg","","mooney1","image-keyboard-response","465","989970","0.0-2.0-1.77","J.W.","1","pretest","true","3859074","null","../img/tt/1163tt.jpg","",""
"1041","<p></p>","","recognized","html-keyboard-response","466","991012","0.0-2.0-2.77","J.W.","1","pretest","true","3859074","78","../img/tt/1163tt.jpg","n",""
"null","../img/gs/1163gs.jpg","","solution","image-keyboard-response","467","993016","0.0-2.0-3.77","J.W.","1","pretest","true","3859074","null","","",""
"null","../img/tt/1163tt.jpg","","mooney2","image-keyboard-response","468","995018","0.0-2.0-4.77","J.W.","1","pretest","true","3859074","null","","",""
"756","<p>How strong was your <strong>aha-experience</strong>?</p>","","aha","html-keyboard-response","469","995777","0.0-2.0-5.77","J.W.","1","pretest","true","3859074","50","../img/tt/1163tt.jpg","","2"
"null","<div style=""font-size:60px;""> </div>","","fixation","html-keyboard-response","470","995986","0.0-2.0-0.78","J.W.","1","pretest","true","3859074","null","","",""
"null","../img/tt/1012tt.jpg","","mooney1","image-keyboard-response","471","998989","0.0-2.0-1.78","J.W.","1","pretest","true","3859074","null","../img/tt/1012tt.jpg","",""
"1299","<p></p>","","recognized","html-keyboard-response","472","1000289","0.0-2.0-2.78","J.W.","1","pretest","true","3859074","78","../img/tt/1012tt.jpg","n",""
"null","../img/gs/1012gs.jpg","","solution","image-keyboard-response","473","1002292","0.0-2.0-3.78","J.W.","1","pretest","true","3859074","null","","",""
"null","../img/tt/1012tt.jpg","","mooney2","image-keyboard-response","474","1004295","0.0-2.0-4.78","J.W.","1","pretest","true","3859074","null","","",""
"1235","<p>How strong was your <strong>aha-experience</strong>?</p>","","aha","html-keyboard-response","475","1005531","0.0-2.0-5.78","J.W.","1","pretest","true","3859074","50","../img/tt/1012tt.jpg","","2"
"null","<div style=""font-size:60px;""> </div>","","fixation","html-keyboard-response","476","1005733","0.0-2.0-0.79","J.W.","1","pretest","true","3859074","null","","",""
"null","../img/tt/1132tt.jpg","","mooney1","image-keyboard-response","477","1008737","0.0-2.0-1.79","J.W.","1","pretest","true","3859074","null","../img/tt/1132tt.jpg","",""
"1127","<p></p>","","recognized","html-keyboard-response","478","1009865","0.0-2.0-2.79","J.W.","1","pretest","true","3859074","89","../img/tt/1132tt.jpg","y",""
"null","../img/gs/1132gs.jpg","","solution","image-keyboard-response","479","1011869","0.0-2.0-3.79","J.W.","1","pretest","true","3859074","null","","",""
"null","../img/tt/1132tt.jpg","","mooney2","image-keyboard-response","480","1013872","0.0-2.0-4.79","J.W.","1","pretest","true","3859074","null","","",""
"778","<p>How strong was your <strong>aha-experience</strong>?</p>","","aha","html-keyboard-response","481","1014652","0.0-2.0-5.79","J.W.","1","pretest","true","3859074","52","../img/tt/1132tt.jpg","","4"
"null","<div style=""font-size:60px;""> </div>","","fixation","html-keyboard-response","482","1014854","0.0-2.0-0.80","J.W.","1","pretest","true","3859074","null","","",""
"null","../img/tt/1233tt.jpg","","mooney1","image-keyboard-response","483","1017858","0.0-2.0-1.80","J.W.","1","pretest","true","3859074","null","../img/tt/1233tt.jpg","",""
"696","<p></p>","","recognized","html-keyboard-response","484","1018554","0.0-2.0-2.80","J.W.","1","pretest","true","3859074","78","../img/tt/1233tt.jpg","n",""
"null","../img/gs/1233gs.jpg","","solution","image-keyboard-response","485","1020557","0.0-2.0-3.80","J.W.","1","pretest","true","3859074","null","","",""
"null","../img/tt/1233tt.jpg","","mooney2","image-keyboard-response","486","1022559","0.0-2.0-4.80","J.W.","1","pretest","true","3859074","null","","",""
"517","<p>How strong was your <strong>aha-experience</strong>?</p>","","aha","html-keyboard-response","487","1023078","0.0-2.0-5.80","J.W.","1","pretest","true","3859074","49","../img/tt/1233tt.jpg","","1"
"null","<div style=""font-size:60px;""> </div>","","fixation","html-keyboard-response","488","1023279","0.0-2.0-0.81","J.W.","1","pretest","true","3859074","null","","",""
"null","../img/tt/1210tt.jpg","","mooney1","image-keyboard-response","489","1026282","0.0-2.0-1.81","J.W.","1","pretest","true","3859074","null","../img/tt/1210tt.jpg","",""
"473","<p></p>","","recognized","html-keyboard-response","490","1026757","0.0-2.0-2.81","J.W.","1","pretest","true","3859074","89","../img/tt/1210tt.jpg","y",""
"null","../img/gs/1210gs.jpg","","solution","image-keyboard-response","491","1028761","0.0-2.0-3.81","J.W.","1","pretest","true","3859074","null","","",""
"null","../img/tt/1210tt.jpg","","mooney2","image-keyboard-response","492","1030764","0.0-2.0-4.81","J.W.","1","pretest","true","3859074","null","","",""
"1191","<p>How strong was your <strong>aha-experience</strong>?</p>","","aha","html-keyboard-response","493","1031956","0.0-2.0-5.81","J.W.","1","pretest","true","3859074","54","../img/tt/1210tt.jpg","","6"
"null","<div style=""font-size:60px;""> </div>","","fixation","html-keyboard-response","494","1032158","0.0-2.0-0.82","J.W.","1","pretest","true","3859074","null","","",""
"null","../img/tt/1090tt.jpg","","mooney1","image-keyboard-response","495","1035160","0.0-2.0-1.82","J.W.","1","pretest","true","3859074","null","../img/tt/1090tt.jpg","",""
"699","<p></p>","","recognized","html-keyboard-response","496","1035861","0.0-2.0-2.82","J.W.","1","pretest","true","3859074","78","../img/tt/1090tt.jpg","n",""
"null","../img/gs/1090gs.jpg","","solution","image-keyboard-response","497","1037865","0.0-2.0-3.82","J.W.","1","pretest","true","3859074","null","","",""
"null","../img/tt/1090tt.jpg","","mooney2","image-keyboard-response","498","1039867","0.0-2.0-4.82","J.W.","1","pretest","true","3859074","null","","",""
"1389","<p>How strong was your <strong>aha-experience</strong>?</p>","","aha","html-keyboard-response","499","1041257","0.0-2.0-5.82","J.W.","1","pretest","true","3859074","53","../img/tt/1090tt.jpg","","5"
"null","<div style=""font-size:60px;""> </div>","","fixation","html-keyboard-response","500","1041459","0.0-2.0-0.83","J.W.","1","pretest","true","3859074","null","","",""
"null","../img/tt/079tt.jpg","","mooney1","image-keyboard-response","501","1044462","0.0-2.0-1.83","J.W.","1","pretest","true","3859074","null","../img/tt/079tt.jpg","",""
"1057","<p></p>","","recognized","html-keyboard-response","502","1045521","0.0-2.0-2.83","J.W.","1","pretest","true","3859074","78","../img/tt/079tt.jpg","n",""
"null","../img/gs/079gs.jpg","","solution","image-keyboard-response","503","1047524","0.0-2.0-3.83","J.W.","1","pretest","true","3859074","null","","",""
"null","../img/tt/079tt.jpg","","mooney2","image-keyboard-response","504","1049526","0.0-2.0-4.83","J.W.","1","pretest","true","3859074","null","","",""
"1447","<p>How strong was your <strong>aha-experience</strong>?</p>","","aha","html-keyboard-response","505","1050975","0.0-2.0-5.83","J.W.","1","pretest","true","3859074","51","../img/tt/079tt.jpg","","3"
"null","<div style=""font-size:60px;""> </div>","","fixation","html-keyboard-response","506","1051177","0.0-2.0-0.84","J.W.","1","pretest","true","3859074","null","","",""
"null","../img/tt/046tt.jpg","","mooney1","image-keyboard-response","507","1054178","0.0-2.0-1.84","J.W.","1","pretest","true","3859074","null","../img/tt/046tt.jpg","",""
"616","<p></p>","","recognized","html-keyboard-response","508","1054795","0.0-2.0-2.84","J.W.","1","pretest","true","3859074","78","../img/tt/046tt.jpg","n",""
"null","../img/gs/046gs.jpg","","solution","image-keyboard-response","509","1056798","0.0-2.0-3.84","J.W.","1","pretest","true","3859074","null","","",""
"null","../img/tt/046tt.jpg","","mooney2","image-keyboard-response","510","1058801","0.0-2.0-4.84","J.W.","1","pretest","true","3859074","null","","",""
"1062","<p>How strong was your <strong>aha-experience</strong>?</p>","","aha","html-keyboard-response","511","1059864","0.0-2.0-5.84","J.W.","1","pretest","true","3859074","50","../img/tt/046tt.jpg","","2"
"null","<div style=""font-size:60px;""> </div>","","fixation","html-keyboard-response","512","1060065","0.0-2.0-0.85","J.W.","1","pretest","true","3859074","null","","",""
"null","../img/tt/1213tt.jpg","","mooney1","image-keyboard-response","513","1063068","0.0-2.0-1.85","J.W.","1","pretest","true","3859074","null","../img/tt/1213tt.jpg","",""
"1075","<p></p>","","recognized","html-keyboard-response","514","1064145","0.0-2.0-2.85","J.W.","1","pretest","true","3859074","78","../img/tt/1213tt.jpg","n",""
"null","../img/gs/1213gs.jpg","","solution","image-keyboard-response","515","1066149","0.0-2.0-3.85","J.W.","1","pretest","true","3859074","null","","",""
"null","../img/tt/1213tt.jpg","","mooney2","image-keyboard-response","516","1068154","0.0-2.0-4.85","J.W.","1","pretest","true","3859074","null","","",""
"565","<p>How strong was your <strong>aha-experience</strong>?</p>","","aha","html-keyboard-response","517","1068720","0.0-2.0-5.85","J.W.","1","pretest","true","3859074","50","../img/tt/1213tt.jpg","","2"
"null","<div style=""font-size:60px;""> </div>","","fixation","html-keyboard-response","518","1068922","0.0-2.0-0.86","J.W.","1","pretest","true","3859074","null","","",""
"null","../img/tt/1152tt.jpg","","mooney1","image-keyboard-response","519","1071925","0.0-2.0-1.86","J.W.","1","pretest","true","3859074","null","../img/tt/1152tt.jpg","",""
"558","<p></p>","","recognized","html-keyboard-response","520","1072484","0.0-2.0-2.86","J.W.","1","pretest","true","3859074","89","../img/tt/1152tt.jpg","y",""
"null","../img/gs/1152gs.jpg","","solution","image-keyboard-response","521","1074486","0.0-2.0-3.86","J.W.","1","pretest","true","3859074","null","","",""
"null","../img/tt/1152tt.jpg","","mooney2","image-keyboard-response","522","1076489","0.0-2.0-4.86","J.W.","1","pretest","true","3859074","null","","",""
"348","<p>How strong was your <strong>aha-experience</strong>?</p>","","aha","html-keyboard-response","523","1076839","0.0-2.0-5.86","J.W.","1","pretest","true","3859074","53","../img/tt/1152tt.jpg","","5"
"null","<div style=""font-size:60px;""> </div>","","fixation","html-keyboard-response","524","1077041","0.0-2.0-0.87","J.W.","1","pretest","true","3859074","null","","",""
"null","../img/tt/1166tt.jpg","","mooney1","image-keyboard-response","525","1080044","0.0-2.0-1.87","J.W.","1","pretest","true","3859074","null","../img/tt/1166tt.jpg","",""
"443","<p></p>","","recognized","html-keyboard-response","526","1080488","0.0-2.0-2.87","J.W.","1","pretest","true","3859074","89","../img/tt/1166tt.jpg","y",""
"null","../img/gs/1166gs.jpg","","solution","image-keyboard-response","527","1082490","0.0-2.0-3.87","J.W.","1","pretest","true","3859074","null","","",""
"null","../img/tt/1166tt.jpg","","mooney2","image-keyboard-response","528","1084493","0.0-2.0-4.87","J.W.","1","pretest","true","3859074","null","","",""
"2065","<p>How strong was your <strong>aha-experience</strong>?</p>","","aha","html-keyboard-response","529","1086559","0.0-2.0-5.87","J.W.","1","pretest","true","3859074","54","../img/tt/1166tt.jpg","","6"
"null","<div style=""font-size:60px;""> </div>","","fixation","html-keyboard-response","530","1086762","0.0-2.0-0.88","J.W.","1","pretest","true","3859074","null","","",""
"null","../img/tt/1024tt.jpg","","mooney1","image-keyboard-response","531","1089765","0.0-2.0-1.88","J.W.","1","pretest","true","3859074","null","../img/tt/1024tt.jpg","",""
"1185","<p></p>","","recognized","html-keyboard-response","532","1090952","0.0-2.0-2.88","J.W.","1","pretest","true","3859074","78","../img/tt/1024tt.jpg","n",""
"null","../img/gs/1024gs.jpg","","solution","image-keyboard-response","533","1092955","0.0-2.0-3.88","J.W.","1","pretest","true","3859074","null","","",""
"null","../img/tt/1024tt.jpg","","mooney2","image-keyboard-response","534","1094957","0.0-2.0-4.88","J.W.","1","pretest","true","3859074","null","","",""
"636","<p>How strong was your <strong>aha-experience</strong>?</p>","","aha","html-keyboard-response","535","1095595","0.0-2.0-5.88","J.W.","1","pretest","true","3859074","51","../img/tt/1024tt.jpg","","3"
"null","<div style=""font-size:60px;""> </div>","","fixation","html-keyboard-response","536","1095799","0.0-2.0-0.89","J.W.","1","pretest","true","3859074","null","","",""
"null","../img/tt/1082tt.jpg","","mooney1","image-keyboard-response","537","1098803","0.0-2.0-1.89","J.W.","1","pretest","true","3859074","null","../img/tt/1082tt.jpg","",""
"416","<p></p>","","recognized","html-keyboard-response","538","1099220","0.0-2.0-2.89","J.W.","1","pretest","true","3859074","89","../img/tt/1082tt.jpg","y",""
"null","../img/gs/1082gs.jpg","","solution","image-keyboard-response","539","1101223","0.0-2.0-3.89","J.W.","1","pretest","true","3859074","null","","",""
"null","../img/tt/1082tt.jpg","","mooney2","image-keyboard-response","540","1103226","0.0-2.0-4.89","J.W.","1","pretest","true","3859074","null","","",""
"843","<p>How strong was your <strong>aha-experience</strong>?</p>","","aha","html-keyboard-response","541","1104070","0.0-2.0-5.89","J.W.","1","pretest","true","3859074","55","../img/tt/1082tt.jpg","","7"
"null","<div style=""font-size:60px;""> </div>","","fixation","html-keyboard-response","542","1104273","0.0-2.0-0.90","J.W.","1","pretest","true","3859074","null","","",""
"null","../img/tt/1009tt.jpg","","mooney1","image-keyboard-response","543","1107275","0.0-2.0-1.90","J.W.","1","pretest","true","3859074","null","../img/tt/1009tt.jpg","",""
"1026","<p></p>","","recognized","html-keyboard-response","544","1108303","0.0-2.0-2.90","J.W.","1","pretest","true","3859074","78","../img/tt/1009tt.jpg","n",""
"null","../img/gs/1009gs.jpg","","solution","image-keyboard-response","545","1110306","0.0-2.0-3.90","J.W.","1","pretest","true","3859074","null","","",""
"null","../img/tt/1009tt.jpg","","mooney2","image-keyboard-response","546","1112309","0.0-2.0-4.90","J.W.","1","pretest","true","3859074","null","","",""
"911","<p>How strong was your <strong>aha-experience</strong>?</p>","","aha","html-keyboard-response","547","1113222","0.0-2.0-5.90","J.W.","1","pretest","true","3859074","50","../img/tt/1009tt.jpg","","2"
"null","<div style=""font-size:60px;""> </div>","","fixation","html-keyboard-response","548","1113424","0.0-2.0-0.91","J.W.","1","pretest","true","3859074","null","","",""
"null","../img/tt/1001tt.jpg","","mooney1","image-keyboard-response","549","1116428","0.0-2.0-1.91","J.W.","1","pretest","true","3859074","null","../img/tt/1001tt.jpg","",""
"1032","<p></p>","","recognized","html-keyboard-response","550","1117462","0.0-2.0-2.91","J.W.","1","pretest","true","3859074","78","../img/tt/1001tt.jpg","n",""
"null","../img/gs/1001gs.jpg","","solution","image-keyboard-response","551","1119465","0.0-2.0-3.91","J.W.","1","pretest","true","3859074","null","","",""
"null","../img/tt/1001tt.jpg","","mooney2","image-keyboard-response","552","1121467","0.0-2.0-4.91","J.W.","1","pretest","true","3859074","null","","",""
"542","<p>How strong was your <strong>aha-experience</strong>?</p>","","aha","html-keyboard-response","553","1122010","0.0-2.0-5.91","J.W.","1","pretest","true","3859074","50","../img/tt/1001tt.jpg","","2"
"null","<div style=""font-size:60px;""> </div>","","fixation","html-keyboard-response","554","1122212","0.0-2.0-0.92","J.W.","1","pretest","true","3859074","null","","",""
"null","../img/tt/1025tt.jpg","","mooney1","image-keyboard-response","555","1125215","0.0-2.0-1.92","J.W.","1","pretest","true","3859074","null","../img/tt/1025tt.jpg","",""
"1113","<p></p>","","recognized","html-keyboard-response","556","1126329","0.0-2.0-2.92","J.W.","1","pretest","true","3859074","78","../img/tt/1025tt.jpg","n",""
"null","../img/gs/1025gs.jpg","","solution","image-keyboard-response","557","1128334","0.0-2.0-3.92","J.W.","1","pretest","true","3859074","null","","",""
"null","../img/tt/1025tt.jpg","","mooney2","image-keyboard-response","558","1130337","0.0-2.0-4.92","J.W.","1","pretest","true","3859074","null","","",""
"1949","<p>How strong was your <strong>aha-experience</strong>?</p>","","aha","html-keyboard-response","559","1132287","0.0-2.0-5.92","J.W.","1","pretest","true","3859074","50","../img/tt/1025tt.jpg","","2"
"null","<div style=""font-size:60px;""> </div>","","fixation","html-keyboard-response","560","1132490","0.0-2.0-0.93","J.W.","1","pretest","true","3859074","null","","",""
