"rt","stimulus","button_pressed","test_part","trial_type","trial_index","time_elapsed","internal_node_id","subject","session","experiment_name","complete","totalTime","key_press","currentStim","recognized","aha"
"13441","<div style='word-wrap: break-word; width: 900px'><h3>Please consider this information carefully before deciding whether to participate in this research</h3><ul style='text-align: left; font-size: .8em;'><li><b>Purpose of the research</b>: To examine how people process images.</li><li><b>What you will do in this research</b>:  Stimuli (images) will be presented on the computer and you will be asked different questions about them.</li><li><b>Time required</b>: Participation will take max 60 minutes to complete.</li><li><b>Risks</b>:  There are no anticipated risks associated with participating in this study. The effects of participating should be comparable to those you would experience from viewing a computer monitor for 60 minutes and using a mouse or keyboard.</li><li><b>Benefits</b>:  This study provides no benefits to you individually. The study provides important information about the nature of perception and learning.</li><li><b>Confidentiality</b>:  Your participation in this study will remain confidential. No personally identifiable information will be associated with your data. Your de-identified data may be shared with other researchers and used in future projects.</li><li><b>Participation and withdrawal</b>:  Your participation in this study is completely voluntary and you may refuse to participate or you may choose to withdraw at any time without penalty.</li><li><b>How to contact the researchers</b>: If you have questions or concerns about your participation or payment, or want to request a summary of research findings, please contact Sander Van de Cruys (KU Leuven), at sander.vandecruys@kuleuven.be.</li></ul><p>The nature and purpose of this research have been sufficiently explained and I agree to participate in this study.  I understand that I am free to withdraw at any time without incurring any penalty.</p><p>Please consent by clicking the button below to continue. Otherwise, please exit the study at this time.</p></div>","0","instructions","html-button-response","0","13445","0.0-0.0","J.W.","2","pretest","true","3541361","","","",""
"86728","<div style='word-wrap: break-word; width: 900px'><h3>Instructions</h3><p>In this experiment you will see a series of distorted images like the one below on the left. As you can see in the righthand image, the distorted images are derived from actual photographs.In what follows, you will <strong>briefly</strong> be presented with <strong>only</strong> the distorted image.</p> <div style='float: left; margin-right: 20px;'><img src='../img/018tt.jpg' height='250' width='250'></img></div><div style='float: right; margin-left: 20px;'><img src='../img/018gs.jpg' height='250' width='250'></img></div><p>To be useful for future research, we need to select those images that people can generally not solve on their own. Therefore we'll show you the distorted image and ask you to indicate (yes or no) whether you already recognized what was in the image. This is not a competition, so please respond truthfully. We don't ask or check your answer, we just want to know whether you think you recognized it. All images depict objects from one of these broad level categories: animals, inanimate objects, plants, sports, vehicles, and food. Recognizing means knowing more than these broad labels for a given image. It means knowing at least the basic level category of the main object in the image, for example when you see a parrot in the image, 'parrot' will obviously be a correct answer but also correct is 'bird', but not 'animal' (the broad level category). For the example above, 'rose' would be correct or 'flower', but not 'plant'. When soccer players are depicted, you don't recognize the image when you just see 'humans', 'outdoors', or 'sports'. Note that complete certainty about your answer is not necessary, it's enough to have a good, definite guess on the object, to say 'yes, I recognized it'.</p><p>One additional question will be asked after we've revealed the solution: You'll be asked to indicate how strong your <strong>aha-experience</strong> was. This describes the positive 'click' you sometimes experience, when the pieces of the 'puzzle' fall together and you suddenly have 'insight' in the image. It describes how good you felt the 'fit' was between the distorted image and the solution.</p><p>Press any key to start.</p></div>","","instructions","html-keyboard-response","1","100176","0.0-1.0","J.W.","2","pretest","true","3541361","32","","",""
"null","<div style=""font-size:60px;""> </div>","","fixation","html-keyboard-response","2","100378","0.0-2.0-0.0","J.W.","2","pretest","true","3541361","null","","",""
"null","../img/tt/1349tt.jpg","","mooney1","image-keyboard-response","3","103383","0.0-2.0-1.0","J.W.","2","pretest","true","3541361","null","../img/tt/1349tt.jpg","",""
"1921","<p></p>","","recognized","html-keyboard-response","4","105305","0.0-2.0-2.0","J.W.","2","pretest","true","3541361","78","../img/tt/1349tt.jpg","n",""
"null","../img/gs/1349gs.jpg","","solution","image-keyboard-response","5","107309","0.0-2.0-3.0","J.W.","2","pretest","true","3541361","null","","",""
"null","../img/tt/1349tt.jpg","","mooney2","image-keyboard-response","6","109311","0.0-2.0-4.0","J.W.","2","pretest","true","3541361","null","","",""
"383","<p>How strong was your <strong>aha-experience</strong>?</p>","","aha","html-keyboard-response","7","109696","0.0-2.0-5.0","J.W.","2","pretest","true","3541361","50","../img/tt/1349tt.jpg","","2"
"null","<div style=""font-size:60px;""> </div>","","fixation","html-keyboard-response","8","109901","0.0-2.0-0.1","J.W.","2","pretest","true","3541361","null","","",""
"null","../img/tt/457tt.jpg","","mooney1","image-keyboard-response","9","112902","0.0-2.0-1.1","J.W.","2","pretest","true","3541361","null","../img/tt/457tt.jpg","",""
"283","<p></p>","","recognized","html-keyboard-response","10","113187","0.0-2.0-2.1","J.W.","2","pretest","true","3541361","78","../img/tt/457tt.jpg","n",""
"null","../img/gs/457gs.jpg","","solution","image-keyboard-response","11","115190","0.0-2.0-3.1","J.W.","2","pretest","true","3541361","null","","",""
"null","../img/tt/457tt.jpg","","mooney2","image-keyboard-response","12","117193","0.0-2.0-4.1","J.W.","2","pretest","true","3541361","null","","",""
"891","<p>How strong was your <strong>aha-experience</strong>?</p>","","aha","html-keyboard-response","13","118086","0.0-2.0-5.1","J.W.","2","pretest","true","3541361","50","../img/tt/457tt.jpg","","2"
"null","<div style=""font-size:60px;""> </div>","","fixation","html-keyboard-response","14","118288","0.0-2.0-0.2","J.W.","2","pretest","true","3541361","null","","",""
"null","../img/tt/175tt.jpg","","mooney1","image-keyboard-response","15","121292","0.0-2.0-1.2","J.W.","2","pretest","true","3541361","null","../img/tt/175tt.jpg","",""
"480","<p></p>","","recognized","html-keyboard-response","16","121774","0.0-2.0-2.2","J.W.","2","pretest","true","3541361","78","../img/tt/175tt.jpg","n",""
"null","../img/gs/175gs.jpg","","solution","image-keyboard-response","17","123777","0.0-2.0-3.2","J.W.","2","pretest","true","3541361","null","","",""
"null","../img/tt/175tt.jpg","","mooney2","image-keyboard-response","18","125779","0.0-2.0-4.2","J.W.","2","pretest","true","3541361","null","","",""
"467","<p>How strong was your <strong>aha-experience</strong>?</p>","","aha","html-keyboard-response","19","126246","0.0-2.0-5.2","J.W.","2","pretest","true","3541361","50","../img/tt/175tt.jpg","","2"
"null","<div style=""font-size:60px;""> </div>","","fixation","html-keyboard-response","20","126448","0.0-2.0-0.3","J.W.","2","pretest","true","3541361","null","","",""
"null","../img/tt/364tt.jpg","","mooney1","image-keyboard-response","21","129452","0.0-2.0-1.3","J.W.","2","pretest","true","3541361","null","../img/tt/364tt.jpg","",""
"644","<p></p>","","recognized","html-keyboard-response","22","130096","0.0-2.0-2.3","J.W.","2","pretest","true","3541361","78","../img/tt/364tt.jpg","n",""
"null","../img/gs/364gs.jpg","","solution","image-keyboard-response","23","132099","0.0-2.0-3.3","J.W.","2","pretest","true","3541361","null","","",""
"null","../img/tt/364tt.jpg","","mooney2","image-keyboard-response","24","134102","0.0-2.0-4.3","J.W.","2","pretest","true","3541361","null","","",""
"333","<p>How strong was your <strong>aha-experience</strong>?</p>","","aha","html-keyboard-response","25","134436","0.0-2.0-5.3","J.W.","2","pretest","true","3541361","49","../img/tt/364tt.jpg","","1"
"null","<div style=""font-size:60px;""> </div>","","fixation","html-keyboard-response","26","134638","0.0-2.0-0.4","J.W.","2","pretest","true","3541361","null","","",""
"null","../img/tt/348tt.jpg","","mooney1","image-keyboard-response","27","137641","0.0-2.0-1.4","J.W.","2","pretest","true","3541361","null","../img/tt/348tt.jpg","",""
"538","<p></p>","","recognized","html-keyboard-response","28","138181","0.0-2.0-2.4","J.W.","2","pretest","true","3541361","89","../img/tt/348tt.jpg","y",""
"null","../img/gs/348gs.jpg","","solution","image-keyboard-response","29","140184","0.0-2.0-3.4","J.W.","2","pretest","true","3541361","null","","",""
"null","../img/tt/348tt.jpg","","mooney2","image-keyboard-response","30","142187","0.0-2.0-4.4","J.W.","2","pretest","true","3541361","null","","",""
"542","<p>How strong was your <strong>aha-experience</strong>?</p>","","aha","html-keyboard-response","31","142730","0.0-2.0-5.4","J.W.","2","pretest","true","3541361","53","../img/tt/348tt.jpg","","5"
"null","<div style=""font-size:60px;""> </div>","","fixation","html-keyboard-response","32","142933","0.0-2.0-0.5","J.W.","2","pretest","true","3541361","null","","",""
"null","../img/tt/448tt.jpg","","mooney1","image-keyboard-response","33","145937","0.0-2.0-1.5","J.W.","2","pretest","true","3541361","null","../img/tt/448tt.jpg","",""
"856","<p></p>","","recognized","html-keyboard-response","34","146794","0.0-2.0-2.5","J.W.","2","pretest","true","3541361","89","../img/tt/448tt.jpg","y",""
"null","../img/gs/448gs.jpg","","solution","image-keyboard-response","35","148797","0.0-2.0-3.5","J.W.","2","pretest","true","3541361","null","","",""
"null","../img/tt/448tt.jpg","","mooney2","image-keyboard-response","36","150799","0.0-2.0-4.5","J.W.","2","pretest","true","3541361","null","","",""
"374","<p>How strong was your <strong>aha-experience</strong>?</p>","","aha","html-keyboard-response","37","151176","0.0-2.0-5.5","J.W.","2","pretest","true","3541361","54","../img/tt/448tt.jpg","","6"
"null","<div style=""font-size:60px;""> </div>","","fixation","html-keyboard-response","38","151378","0.0-2.0-0.6","J.W.","2","pretest","true","3541361","null","","",""
"null","../img/tt/1347tt.jpg","","mooney1","image-keyboard-response","39","154380","0.0-2.0-1.6","J.W.","2","pretest","true","3541361","null","../img/tt/1347tt.jpg","",""
"967","<p></p>","","recognized","html-keyboard-response","40","155349","0.0-2.0-2.6","J.W.","2","pretest","true","3541361","89","../img/tt/1347tt.jpg","y",""
"null","../img/gs/1347gs.jpg","","solution","image-keyboard-response","41","157352","0.0-2.0-3.6","J.W.","2","pretest","true","3541361","null","","",""
"null","../img/tt/1347tt.jpg","","mooney2","image-keyboard-response","42","159353","0.0-2.0-4.6","J.W.","2","pretest","true","3541361","null","","",""
"512","<p>How strong was your <strong>aha-experience</strong>?</p>","","aha","html-keyboard-response","43","159867","0.0-2.0-5.6","J.W.","2","pretest","true","3541361","51","../img/tt/1347tt.jpg","","3"
"null","<div style=""font-size:60px;""> </div>","","fixation","html-keyboard-response","44","160068","0.0-2.0-0.7","J.W.","2","pretest","true","3541361","null","","",""
"null","../img/tt/360tt.jpg","","mooney1","image-keyboard-response","45","163070","0.0-2.0-1.7","J.W.","2","pretest","true","3541361","null","../img/tt/360tt.jpg","",""
"406","<p></p>","","recognized","html-keyboard-response","46","163478","0.0-2.0-2.7","J.W.","2","pretest","true","3541361","78","../img/tt/360tt.jpg","n",""
"null","../img/gs/360gs.jpg","","solution","image-keyboard-response","47","165481","0.0-2.0-3.7","J.W.","2","pretest","true","3541361","null","","",""
"null","../img/tt/360tt.jpg","","mooney2","image-keyboard-response","48","167484","0.0-2.0-4.7","J.W.","2","pretest","true","3541361","null","","",""
"1412","<p>How strong was your <strong>aha-experience</strong>?</p>","","aha","html-keyboard-response","49","168897","0.0-2.0-5.7","J.W.","2","pretest","true","3541361","50","../img/tt/360tt.jpg","","2"
"null","<div style=""font-size:60px;""> </div>","","fixation","html-keyboard-response","50","169099","0.0-2.0-0.8","J.W.","2","pretest","true","3541361","null","","",""
"null","../img/tt/553tt.jpg","","mooney1","image-keyboard-response","51","172102","0.0-2.0-1.8","J.W.","2","pretest","true","3541361","null","../img/tt/553tt.jpg","",""
"685","<p></p>","","recognized","html-keyboard-response","52","172787","0.0-2.0-2.8","J.W.","2","pretest","true","3541361","78","../img/tt/553tt.jpg","n",""
"null","../img/gs/553gs.jpg","","solution","image-keyboard-response","53","174789","0.0-2.0-3.8","J.W.","2","pretest","true","3541361","null","","",""
"null","../img/tt/553tt.jpg","","mooney2","image-keyboard-response","54","176791","0.0-2.0-4.8","J.W.","2","pretest","true","3541361","null","","",""
"730","<p>How strong was your <strong>aha-experience</strong>?</p>","","aha","html-keyboard-response","55","177523","0.0-2.0-5.8","J.W.","2","pretest","true","3541361","49","../img/tt/553tt.jpg","","1"
"null","<div style=""font-size:60px;""> </div>","","fixation","html-keyboard-response","56","177726","0.0-2.0-0.9","J.W.","2","pretest","true","3541361","null","","",""
"null","../img/tt/426tt.jpg","","mooney1","image-keyboard-response","57","180729","0.0-2.0-1.9","J.W.","2","pretest","true","3541361","null","../img/tt/426tt.jpg","",""
"899","<p></p>","","recognized","html-keyboard-response","58","181629","0.0-2.0-2.9","J.W.","2","pretest","true","3541361","78","../img/tt/426tt.jpg","n",""
"null","../img/gs/426gs.jpg","","solution","image-keyboard-response","59","183632","0.0-2.0-3.9","J.W.","2","pretest","true","3541361","null","","",""
"null","../img/tt/426tt.jpg","","mooney2","image-keyboard-response","60","185634","0.0-2.0-4.9","J.W.","2","pretest","true","3541361","null","","",""
"798","<p>How strong was your <strong>aha-experience</strong>?</p>","","aha","html-keyboard-response","61","186434","0.0-2.0-5.9","J.W.","2","pretest","true","3541361","50","../img/tt/426tt.jpg","","2"
"null","<div style=""font-size:60px;""> </div>","","fixation","html-keyboard-response","62","186636","0.0-2.0-0.10","J.W.","2","pretest","true","3541361","null","","",""
"null","../img/tt/340tt.jpg","","mooney1","image-keyboard-response","63","189639","0.0-2.0-1.10","J.W.","2","pretest","true","3541361","null","../img/tt/340tt.jpg","",""
"839","<p></p>","","recognized","html-keyboard-response","64","190479","0.0-2.0-2.10","J.W.","2","pretest","true","3541361","78","../img/tt/340tt.jpg","n",""
"null","../img/gs/340gs.jpg","","solution","image-keyboard-response","65","192503","0.0-2.0-3.10","J.W.","2","pretest","true","3541361","null","","",""
"null","../img/tt/340tt.jpg","","mooney2","image-keyboard-response","66","194505","0.0-2.0-4.10","J.W.","2","pretest","true","3541361","null","","",""
"909","<p>How strong was your <strong>aha-experience</strong>?</p>","","aha","html-keyboard-response","67","195416","0.0-2.0-5.10","J.W.","2","pretest","true","3541361","50","../img/tt/340tt.jpg","","2"
"null","<div style=""font-size:60px;""> </div>","","fixation","html-keyboard-response","68","195618","0.0-2.0-0.11","J.W.","2","pretest","true","3541361","null","","",""
"null","../img/tt/504tt.jpg","","mooney1","image-keyboard-response","69","198626","0.0-2.0-1.11","J.W.","2","pretest","true","3541361","null","../img/tt/504tt.jpg","",""
"432","<p></p>","","recognized","html-keyboard-response","70","199059","0.0-2.0-2.11","J.W.","2","pretest","true","3541361","78","../img/tt/504tt.jpg","n",""
"null","../img/gs/504gs.jpg","","solution","image-keyboard-response","71","201063","0.0-2.0-3.11","J.W.","2","pretest","true","3541361","null","","",""
"null","../img/tt/504tt.jpg","","mooney2","image-keyboard-response","72","203065","0.0-2.0-4.11","J.W.","2","pretest","true","3541361","null","","",""
"1137","<p>How strong was your <strong>aha-experience</strong>?</p>","","aha","html-keyboard-response","73","204203","0.0-2.0-5.11","J.W.","2","pretest","true","3541361","52","../img/tt/504tt.jpg","","4"
"null","<div style=""font-size:60px;""> </div>","","fixation","html-keyboard-response","74","204405","0.0-2.0-0.12","J.W.","2","pretest","true","3541361","null","","",""
"null","../img/tt/470tt.jpg","","mooney1","image-keyboard-response","75","207408","0.0-2.0-1.12","J.W.","2","pretest","true","3541361","null","../img/tt/470tt.jpg","",""
"411","<p></p>","","recognized","html-keyboard-response","76","207820","0.0-2.0-2.12","J.W.","2","pretest","true","3541361","78","../img/tt/470tt.jpg","n",""
"null","../img/gs/470gs.jpg","","solution","image-keyboard-response","77","209823","0.0-2.0-3.12","J.W.","2","pretest","true","3541361","null","","",""
"null","../img/tt/470tt.jpg","","mooney2","image-keyboard-response","78","211825","0.0-2.0-4.12","J.W.","2","pretest","true","3541361","null","","",""
"1737","<p>How strong was your <strong>aha-experience</strong>?</p>","","aha","html-keyboard-response","79","213563","0.0-2.0-5.12","J.W.","2","pretest","true","3541361","53","../img/tt/470tt.jpg","","5"
"null","<div style=""font-size:60px;""> </div>","","fixation","html-keyboard-response","80","213765","0.0-2.0-0.13","J.W.","2","pretest","true","3541361","null","","",""
"null","../img/tt/487tt.jpg","","mooney1","image-keyboard-response","81","216768","0.0-2.0-1.13","J.W.","2","pretest","true","3541361","null","../img/tt/487tt.jpg","",""
"396","<p></p>","","recognized","html-keyboard-response","82","217166","0.0-2.0-2.13","J.W.","2","pretest","true","3541361","89","../img/tt/487tt.jpg","y",""
"null","../img/gs/487gs.jpg","","solution","image-keyboard-response","83","219169","0.0-2.0-3.13","J.W.","2","pretest","true","3541361","null","","",""
"null","../img/tt/487tt.jpg","","mooney2","image-keyboard-response","84","221170","0.0-2.0-4.13","J.W.","2","pretest","true","3541361","null","","",""
"981","<p>How strong was your <strong>aha-experience</strong>?</p>","","aha","html-keyboard-response","85","222152","0.0-2.0-5.13","J.W.","2","pretest","true","3541361","51","../img/tt/487tt.jpg","","3"
"null","<div style=""font-size:60px;""> </div>","","fixation","html-keyboard-response","86","222355","0.0-2.0-0.14","J.W.","2","pretest","true","3541361","null","","",""
"null","../img/tt/1352tt.jpg","","mooney1","image-keyboard-response","87","225359","0.0-2.0-1.14","J.W.","2","pretest","true","3541361","null","../img/tt/1352tt.jpg","",""
"725","<p></p>","","recognized","html-keyboard-response","88","226084","0.0-2.0-2.14","J.W.","2","pretest","true","3541361","89","../img/tt/1352tt.jpg","y",""
"null","../img/gs/1352gs.jpg","","solution","image-keyboard-response","89","228087","0.0-2.0-3.14","J.W.","2","pretest","true","3541361","null","","",""
"null","../img/tt/1352tt.jpg","","mooney2","image-keyboard-response","90","230089","0.0-2.0-4.14","J.W.","2","pretest","true","3541361","null","","",""
"477","<p>How strong was your <strong>aha-experience</strong>?</p>","","aha","html-keyboard-response","91","230567","0.0-2.0-5.14","J.W.","2","pretest","true","3541361","54","../img/tt/1352tt.jpg","","6"
"null","<div style=""font-size:60px;""> </div>","","fixation","html-keyboard-response","92","230769","0.0-2.0-0.15","J.W.","2","pretest","true","3541361","null","","",""
"null","../img/tt/136tt.jpg","","mooney1","image-keyboard-response","93","233772","0.0-2.0-1.15","J.W.","2","pretest","true","3541361","null","../img/tt/136tt.jpg","",""
"934","<p></p>","","recognized","html-keyboard-response","94","234706","0.0-2.0-2.15","J.W.","2","pretest","true","3541361","78","../img/tt/136tt.jpg","n",""
"null","../img/gs/136gs.jpg","","solution","image-keyboard-response","95","236709","0.0-2.0-3.15","J.W.","2","pretest","true","3541361","null","","",""
"null","../img/tt/136tt.jpg","","mooney2","image-keyboard-response","96","238711","0.0-2.0-4.15","J.W.","2","pretest","true","3541361","null","","",""
"735","<p>How strong was your <strong>aha-experience</strong>?</p>","","aha","html-keyboard-response","97","239448","0.0-2.0-5.15","J.W.","2","pretest","true","3541361","50","../img/tt/136tt.jpg","","2"
"null","<div style=""font-size:60px;""> </div>","","fixation","html-keyboard-response","98","239651","0.0-2.0-0.16","J.W.","2","pretest","true","3541361","null","","",""
"null","../img/tt/464tt.jpg","","mooney1","image-keyboard-response","99","242653","0.0-2.0-1.16","J.W.","2","pretest","true","3541361","null","../img/tt/464tt.jpg","",""
"399","<p></p>","","recognized","html-keyboard-response","100","243054","0.0-2.0-2.16","J.W.","2","pretest","true","3541361","78","../img/tt/464tt.jpg","n",""
"null","../img/gs/464gs.jpg","","solution","image-keyboard-response","101","245057","0.0-2.0-3.16","J.W.","2","pretest","true","3541361","null","","",""
"null","../img/tt/464tt.jpg","","mooney2","image-keyboard-response","102","247059","0.0-2.0-4.16","J.W.","2","pretest","true","3541361","null","","",""
"1864","<p>How strong was your <strong>aha-experience</strong>?</p>","","aha","html-keyboard-response","103","248924","0.0-2.0-5.16","J.W.","2","pretest","true","3541361","53","../img/tt/464tt.jpg","","5"
"null","<div style=""font-size:60px;""> </div>","","fixation","html-keyboard-response","104","249126","0.0-2.0-0.17","J.W.","2","pretest","true","3541361","null","","",""
"null","../img/tt/1328tt.jpg","","mooney1","image-keyboard-response","105","252129","0.0-2.0-1.17","J.W.","2","pretest","true","3541361","null","../img/tt/1328tt.jpg","",""
"886","<p></p>","","recognized","html-keyboard-response","106","253016","0.0-2.0-2.17","J.W.","2","pretest","true","3541361","89","../img/tt/1328tt.jpg","y",""
"null","../img/gs/1328gs.jpg","","solution","image-keyboard-response","107","255019","0.0-2.0-3.17","J.W.","2","pretest","true","3541361","null","","",""
"null","../img/tt/1328tt.jpg","","mooney2","image-keyboard-response","108","257022","0.0-2.0-4.17","J.W.","2","pretest","true","3541361","null","","",""
"367","<p>How strong was your <strong>aha-experience</strong>?</p>","","aha","html-keyboard-response","109","257391","0.0-2.0-5.17","J.W.","2","pretest","true","3541361","53","../img/tt/1328tt.jpg","","5"
"null","<div style=""font-size:60px;""> </div>","","fixation","html-keyboard-response","110","257592","0.0-2.0-0.18","J.W.","2","pretest","true","3541361","null","","",""
"null","../img/tt/356tt.jpg","","mooney1","image-keyboard-response","111","260594","0.0-2.0-1.18","J.W.","2","pretest","true","3541361","null","../img/tt/356tt.jpg","",""
"330","<p></p>","","recognized","html-keyboard-response","112","260925","0.0-2.0-2.18","J.W.","2","pretest","true","3541361","89","../img/tt/356tt.jpg","y",""
"null","../img/gs/356gs.jpg","","solution","image-keyboard-response","113","262929","0.0-2.0-3.18","J.W.","2","pretest","true","3541361","null","","",""
"null","../img/tt/356tt.jpg","","mooney2","image-keyboard-response","114","264932","0.0-2.0-4.18","J.W.","2","pretest","true","3541361","null","","",""
"319","<p>How strong was your <strong>aha-experience</strong>?</p>","","aha","html-keyboard-response","115","265253","0.0-2.0-5.18","J.W.","2","pretest","true","3541361","52","../img/tt/356tt.jpg","","4"
"null","<div style=""font-size:60px;""> </div>","","fixation","html-keyboard-response","116","265455","0.0-2.0-0.19","J.W.","2","pretest","true","3541361","null","","",""
"null","../img/tt/390tt.jpg","","mooney1","image-keyboard-response","117","268457","0.0-2.0-1.19","J.W.","2","pretest","true","3541361","null","../img/tt/390tt.jpg","",""
"833","<p></p>","","recognized","html-keyboard-response","118","269291","0.0-2.0-2.19","J.W.","2","pretest","true","3541361","78","../img/tt/390tt.jpg","n",""
"null","../img/gs/390gs.jpg","","solution","image-keyboard-response","119","271296","0.0-2.0-3.19","J.W.","2","pretest","true","3541361","null","","",""
"null","../img/tt/390tt.jpg","","mooney2","image-keyboard-response","120","273299","0.0-2.0-4.19","J.W.","2","pretest","true","3541361","null","","",""
"978","<p>How strong was your <strong>aha-experience</strong>?</p>","","aha","html-keyboard-response","121","274279","0.0-2.0-5.19","J.W.","2","pretest","true","3541361","50","../img/tt/390tt.jpg","","2"
"null","<div style=""font-size:60px;""> </div>","","fixation","html-keyboard-response","122","274480","0.0-2.0-0.20","J.W.","2","pretest","true","3541361","null","","",""
"null","../img/tt/586tt.jpg","","mooney1","image-keyboard-response","123","277483","0.0-2.0-1.20","J.W.","2","pretest","true","3541361","null","../img/tt/586tt.jpg","",""
"743","<p></p>","","recognized","html-keyboard-response","124","278227","0.0-2.0-2.20","J.W.","2","pretest","true","3541361","78","../img/tt/586tt.jpg","n",""
"null","../img/gs/586gs.jpg","","solution","image-keyboard-response","125","280229","0.0-2.0-3.20","J.W.","2","pretest","true","3541361","null","","",""
"null","../img/tt/586tt.jpg","","mooney2","image-keyboard-response","126","282231","0.0-2.0-4.20","J.W.","2","pretest","true","3541361","null","","",""
"1206","<p>How strong was your <strong>aha-experience</strong>?</p>","","aha","html-keyboard-response","127","283439","0.0-2.0-5.20","J.W.","2","pretest","true","3541361","50","../img/tt/586tt.jpg","","2"
"null","<div style=""font-size:60px;""> </div>","","fixation","html-keyboard-response","128","283641","0.0-2.0-0.21","J.W.","2","pretest","true","3541361","null","","",""
"null","../img/tt/1305tt.jpg","","mooney1","image-keyboard-response","129","286644","0.0-2.0-1.21","J.W.","2","pretest","true","3541361","null","../img/tt/1305tt.jpg","",""
"554","<p></p>","","recognized","html-keyboard-response","130","287199","0.0-2.0-2.21","J.W.","2","pretest","true","3541361","89","../img/tt/1305tt.jpg","y",""
"null","../img/gs/1305gs.jpg","","solution","image-keyboard-response","131","289202","0.0-2.0-3.21","J.W.","2","pretest","true","3541361","null","","",""
"null","../img/tt/1305tt.jpg","","mooney2","image-keyboard-response","132","291205","0.0-2.0-4.21","J.W.","2","pretest","true","3541361","null","","",""
"365","<p>How strong was your <strong>aha-experience</strong>?</p>","","aha","html-keyboard-response","133","291572","0.0-2.0-5.21","J.W.","2","pretest","true","3541361","54","../img/tt/1305tt.jpg","","6"
"null","<div style=""font-size:60px;""> </div>","","fixation","html-keyboard-response","134","291774","0.0-2.0-0.22","J.W.","2","pretest","true","3541361","null","","",""
"null","../img/tt/145tt.jpg","","mooney1","image-keyboard-response","135","294776","0.0-2.0-1.22","J.W.","2","pretest","true","3541361","null","../img/tt/145tt.jpg","",""
"734","<p></p>","","recognized","html-keyboard-response","136","295512","0.0-2.0-2.22","J.W.","2","pretest","true","3541361","78","../img/tt/145tt.jpg","n",""
"null","../img/gs/145gs.jpg","","solution","image-keyboard-response","137","297515","0.0-2.0-3.22","J.W.","2","pretest","true","3541361","null","","",""
"null","../img/tt/145tt.jpg","","mooney2","image-keyboard-response","138","299518","0.0-2.0-4.22","J.W.","2","pretest","true","3541361","null","","",""
"841","<p>How strong was your <strong>aha-experience</strong>?</p>","","aha","html-keyboard-response","139","300362","0.0-2.0-5.22","J.W.","2","pretest","true","3541361","50","../img/tt/145tt.jpg","","2"
"null","<div style=""font-size:60px;""> </div>","","fixation","html-keyboard-response","140","300564","0.0-2.0-0.23","J.W.","2","pretest","true","3541361","null","","",""
"null","../img/tt/322tt.jpg","","mooney1","image-keyboard-response","141","303566","0.0-2.0-1.23","J.W.","2","pretest","true","3541361","null","../img/tt/322tt.jpg","",""
"1128","<p></p>","","recognized","html-keyboard-response","142","304695","0.0-2.0-2.23","J.W.","2","pretest","true","3541361","89","../img/tt/322tt.jpg","y",""
"null","../img/gs/322gs.jpg","","solution","image-keyboard-response","143","306697","0.0-2.0-3.23","J.W.","2","pretest","true","3541361","null","","",""
"null","../img/tt/322tt.jpg","","mooney2","image-keyboard-response","144","308700","0.0-2.0-4.23","J.W.","2","pretest","true","3541361","null","","",""
"1871","<p>How strong was your <strong>aha-experience</strong>?</p>","","aha","html-keyboard-response","145","310572","0.0-2.0-5.23","J.W.","2","pretest","true","3541361","53","../img/tt/322tt.jpg","","5"
"null","<div style=""font-size:60px;""> </div>","","fixation","html-keyboard-response","146","310774","0.0-2.0-0.24","J.W.","2","pretest","true","3541361","null","","",""
"null","../img/tt/159tt.jpg","","mooney1","image-keyboard-response","147","313778","0.0-2.0-1.24","J.W.","2","pretest","true","3541361","null","../img/tt/159tt.jpg","",""
"734","<p></p>","","recognized","html-keyboard-response","148","314514","0.0-2.0-2.24","J.W.","2","pretest","true","3541361","78","../img/tt/159tt.jpg","n",""
"null","../img/gs/159gs.jpg","","solution","image-keyboard-response","149","316517","0.0-2.0-3.24","J.W.","2","pretest","true","3541361","null","","",""
"null","../img/tt/159tt.jpg","","mooney2","image-keyboard-response","150","318520","0.0-2.0-4.24","J.W.","2","pretest","true","3541361","null","","",""
"1185","<p>How strong was your <strong>aha-experience</strong>?</p>","","aha","html-keyboard-response","151","319706","0.0-2.0-5.24","J.W.","2","pretest","true","3541361","50","../img/tt/159tt.jpg","","2"
"null","<div style=""font-size:60px;""> </div>","","fixation","html-keyboard-response","152","319908","0.0-2.0-0.25","J.W.","2","pretest","true","3541361","null","","",""
"null","../img/tt/327tt.jpg","","mooney1","image-keyboard-response","153","322911","0.0-2.0-1.25","J.W.","2","pretest","true","3541361","null","../img/tt/327tt.jpg","",""
"307","<p></p>","","recognized","html-keyboard-response","154","323219","0.0-2.0-2.25","J.W.","2","pretest","true","3541361","89","../img/tt/327tt.jpg","y",""
"null","../img/gs/327gs.jpg","","solution","image-keyboard-response","155","325224","0.0-2.0-3.25","J.W.","2","pretest","true","3541361","null","","",""
"null","../img/tt/327tt.jpg","","mooney2","image-keyboard-response","156","327226","0.0-2.0-4.25","J.W.","2","pretest","true","3541361","null","","",""
"497","<p>How strong was your <strong>aha-experience</strong>?</p>","","aha","html-keyboard-response","157","327725","0.0-2.0-5.25","J.W.","2","pretest","true","3541361","50","../img/tt/327tt.jpg","","2"
"null","<div style=""font-size:60px;""> </div>","","fixation","html-keyboard-response","158","327928","0.0-2.0-0.26","J.W.","2","pretest","true","3541361","null","","",""
"null","../img/tt/203tt.jpg","","mooney1","image-keyboard-response","159","330930","0.0-2.0-1.26","J.W.","2","pretest","true","3541361","null","../img/tt/203tt.jpg","",""
"1080","<p></p>","","recognized","html-keyboard-response","160","332011","0.0-2.0-2.26","J.W.","2","pretest","true","3541361","89","../img/tt/203tt.jpg","y",""
"null","../img/gs/203gs.jpg","","solution","image-keyboard-response","161","334014","0.0-2.0-3.26","J.W.","2","pretest","true","3541361","null","","",""
"null","../img/tt/203tt.jpg","","mooney2","image-keyboard-response","162","336016","0.0-2.0-4.26","J.W.","2","pretest","true","3541361","null","","",""
"439","<p>How strong was your <strong>aha-experience</strong>?</p>","","aha","html-keyboard-response","163","336456","0.0-2.0-5.26","J.W.","2","pretest","true","3541361","55","../img/tt/203tt.jpg","","7"
"null","<div style=""font-size:60px;""> </div>","","fixation","html-keyboard-response","164","336658","0.0-2.0-0.27","J.W.","2","pretest","true","3541361","null","","",""
"null","../img/tt/463tt.jpg","","mooney1","image-keyboard-response","165","339661","0.0-2.0-1.27","J.W.","2","pretest","true","3541361","null","../img/tt/463tt.jpg","",""
"540","<p></p>","","recognized","html-keyboard-response","166","340201","0.0-2.0-2.27","J.W.","2","pretest","true","3541361","89","../img/tt/463tt.jpg","y",""
"null","../img/gs/463gs.jpg","","solution","image-keyboard-response","167","342203","0.0-2.0-3.27","J.W.","2","pretest","true","3541361","null","","",""
"null","../img/tt/463tt.jpg","","mooney2","image-keyboard-response","168","344206","0.0-2.0-4.27","J.W.","2","pretest","true","3541361","null","","",""
"1415","<p>How strong was your <strong>aha-experience</strong>?</p>","","aha","html-keyboard-response","169","345622","0.0-2.0-5.27","J.W.","2","pretest","true","3541361","54","../img/tt/463tt.jpg","","6"
"null","<div style=""font-size:60px;""> </div>","","fixation","html-keyboard-response","170","345824","0.0-2.0-0.28","J.W.","2","pretest","true","3541361","null","","",""
"null","../img/tt/151tt.jpg","","mooney1","image-keyboard-response","171","348827","0.0-2.0-1.28","J.W.","2","pretest","true","3541361","null","../img/tt/151tt.jpg","",""
"1211","<p></p>","","recognized","html-keyboard-response","172","350039","0.0-2.0-2.28","J.W.","2","pretest","true","3541361","78","../img/tt/151tt.jpg","n",""
"null","../img/gs/151gs.jpg","","solution","image-keyboard-response","173","352043","0.0-2.0-3.28","J.W.","2","pretest","true","3541361","null","","",""
"null","../img/tt/151tt.jpg","","mooney2","image-keyboard-response","174","354046","0.0-2.0-4.28","J.W.","2","pretest","true","3541361","null","","",""
"530","<p>How strong was your <strong>aha-experience</strong>?</p>","","aha","html-keyboard-response","175","354577","0.0-2.0-5.28","J.W.","2","pretest","true","3541361","49","../img/tt/151tt.jpg","","1"
"null","<div style=""font-size:60px;""> </div>","","fixation","html-keyboard-response","176","354778","0.0-2.0-0.29","J.W.","2","pretest","true","3541361","null","","",""
"null","../img/tt/220tt.jpg","","mooney1","image-keyboard-response","177","357782","0.0-2.0-1.29","J.W.","2","pretest","true","3541361","null","../img/tt/220tt.jpg","",""
"378","<p></p>","","recognized","html-keyboard-response","178","358161","0.0-2.0-2.29","J.W.","2","pretest","true","3541361","78","../img/tt/220tt.jpg","n",""
"null","../img/gs/220gs.jpg","","solution","image-keyboard-response","179","360163","0.0-2.0-3.29","J.W.","2","pretest","true","3541361","null","","",""
"null","../img/tt/220tt.jpg","","mooney2","image-keyboard-response","180","362167","0.0-2.0-4.29","J.W.","2","pretest","true","3541361","null","","",""
"465","<p>How strong was your <strong>aha-experience</strong>?</p>","","aha","html-keyboard-response","181","362633","0.0-2.0-5.29","J.W.","2","pretest","true","3541361","53","../img/tt/220tt.jpg","","5"
"null","<div style=""font-size:60px;""> </div>","","fixation","html-keyboard-response","182","362835","0.0-2.0-0.30","J.W.","2","pretest","true","3541361","null","","",""
"null","../img/tt/319tt.jpg","","mooney1","image-keyboard-response","183","365838","0.0-2.0-1.30","J.W.","2","pretest","true","3541361","null","../img/tt/319tt.jpg","",""
"1096","<p></p>","","recognized","html-keyboard-response","184","366935","0.0-2.0-2.30","J.W.","2","pretest","true","3541361","89","../img/tt/319tt.jpg","y",""
"null","../img/gs/319gs.jpg","","solution","image-keyboard-response","185","368939","0.0-2.0-3.30","J.W.","2","pretest","true","3541361","null","","",""
"null","../img/tt/319tt.jpg","","mooney2","image-keyboard-response","186","370941","0.0-2.0-4.30","J.W.","2","pretest","true","3541361","null","","",""
"423","<p>How strong was your <strong>aha-experience</strong>?</p>","","aha","html-keyboard-response","187","371366","0.0-2.0-5.30","J.W.","2","pretest","true","3541361","54","../img/tt/319tt.jpg","","6"
"null","<div style=""font-size:60px;""> </div>","","fixation","html-keyboard-response","188","371568","0.0-2.0-0.31","J.W.","2","pretest","true","3541361","null","","",""
"null","../img/tt/160tt.jpg","","mooney1","image-keyboard-response","189","374570","0.0-2.0-1.31","J.W.","2","pretest","true","3541361","null","../img/tt/160tt.jpg","",""
"515","<p></p>","","recognized","html-keyboard-response","190","375086","0.0-2.0-2.31","J.W.","2","pretest","true","3541361","78","../img/tt/160tt.jpg","n",""
"null","../img/gs/160gs.jpg","","solution","image-keyboard-response","191","377091","0.0-2.0-3.31","J.W.","2","pretest","true","3541361","null","","",""
"null","../img/tt/160tt.jpg","","mooney2","image-keyboard-response","192","379093","0.0-2.0-4.31","J.W.","2","pretest","true","3541361","null","","",""
"395","<p>How strong was your <strong>aha-experience</strong>?</p>","","aha","html-keyboard-response","193","379489","0.0-2.0-5.31","J.W.","2","pretest","true","3541361","52","../img/tt/160tt.jpg","","4"
"null","<div style=""font-size:60px;""> </div>","","fixation","html-keyboard-response","194","379690","0.0-2.0-0.32","J.W.","2","pretest","true","3541361","null","","",""
"null","../img/tt/465tt.jpg","","mooney1","image-keyboard-response","195","382693","0.0-2.0-1.32","J.W.","2","pretest","true","3541361","null","../img/tt/465tt.jpg","",""
"731","<p></p>","","recognized","html-keyboard-response","196","383426","0.0-2.0-2.32","J.W.","2","pretest","true","3541361","78","../img/tt/465tt.jpg","n",""
"null","../img/gs/465gs.jpg","","solution","image-keyboard-response","197","385428","0.0-2.0-3.32","J.W.","2","pretest","true","3541361","null","","",""
"null","../img/tt/465tt.jpg","","mooney2","image-keyboard-response","198","387431","0.0-2.0-4.32","J.W.","2","pretest","true","3541361","null","","",""
"556","<p>How strong was your <strong>aha-experience</strong>?</p>","","aha","html-keyboard-response","199","387989","0.0-2.0-5.32","J.W.","2","pretest","true","3541361","53","../img/tt/465tt.jpg","","5"
"null","<div style=""font-size:60px;""> </div>","","fixation","html-keyboard-response","200","388191","0.0-2.0-0.33","J.W.","2","pretest","true","3541361","null","","",""
"null","../img/tt/481tt.jpg","","mooney1","image-keyboard-response","201","391194","0.0-2.0-1.33","J.W.","2","pretest","true","3541361","null","../img/tt/481tt.jpg","",""
"859","<p></p>","","recognized","html-keyboard-response","202","392054","0.0-2.0-2.33","J.W.","2","pretest","true","3541361","89","../img/tt/481tt.jpg","y",""
"null","../img/gs/481gs.jpg","","solution","image-keyboard-response","203","394057","0.0-2.0-3.33","J.W.","2","pretest","true","3541361","null","","",""
"null","../img/tt/481tt.jpg","","mooney2","image-keyboard-response","204","396059","0.0-2.0-4.33","J.W.","2","pretest","true","3541361","null","","",""
"843","<p>How strong was your <strong>aha-experience</strong>?</p>","","aha","html-keyboard-response","205","396903","0.0-2.0-5.33","J.W.","2","pretest","true","3541361","53","../img/tt/481tt.jpg","","5"
"null","<div style=""font-size:60px;""> </div>","","fixation","html-keyboard-response","206","397105","0.0-2.0-0.34","J.W.","2","pretest","true","3541361","null","","",""
"null","../img/tt/279tt.jpg","","mooney1","image-keyboard-response","207","400108","0.0-2.0-1.34","J.W.","2","pretest","true","3541361","null","../img/tt/279tt.jpg","",""
"352","<p></p>","","recognized","html-keyboard-response","208","400462","0.0-2.0-2.34","J.W.","2","pretest","true","3541361","78","../img/tt/279tt.jpg","n",""
"null","../img/gs/279gs.jpg","","solution","image-keyboard-response","209","402465","0.0-2.0-3.34","J.W.","2","pretest","true","3541361","null","","",""
"null","../img/tt/279tt.jpg","","mooney2","image-keyboard-response","210","404468","0.0-2.0-4.34","J.W.","2","pretest","true","3541361","null","","",""
"1118","<p>How strong was your <strong>aha-experience</strong>?</p>","","aha","html-keyboard-response","211","405587","0.0-2.0-5.34","J.W.","2","pretest","true","3541361","53","../img/tt/279tt.jpg","","5"
"null","<div style=""font-size:60px;""> </div>","","fixation","html-keyboard-response","212","405789","0.0-2.0-0.35","J.W.","2","pretest","true","3541361","null","","",""
"null","../img/tt/317tt.jpg","","mooney1","image-keyboard-response","213","408791","0.0-2.0-1.35","J.W.","2","pretest","true","3541361","null","../img/tt/317tt.jpg","",""
"350","<p></p>","","recognized","html-keyboard-response","214","409143","0.0-2.0-2.35","J.W.","2","pretest","true","3541361","89","../img/tt/317tt.jpg","y",""
"null","../img/gs/317gs.jpg","","solution","image-keyboard-response","215","411146","0.0-2.0-3.35","J.W.","2","pretest","true","3541361","null","","",""
"null","../img/tt/317tt.jpg","","mooney2","image-keyboard-response","216","413148","0.0-2.0-4.35","J.W.","2","pretest","true","3541361","null","","",""
"942","<p>How strong was your <strong>aha-experience</strong>?</p>","","aha","html-keyboard-response","217","414091","0.0-2.0-5.35","J.W.","2","pretest","true","3541361","53","../img/tt/317tt.jpg","","5"
"null","<div style=""font-size:60px;""> </div>","","fixation","html-keyboard-response","218","414294","0.0-2.0-0.36","J.W.","2","pretest","true","3541361","null","","",""
"null","../img/tt/486tt.jpg","","mooney1","image-keyboard-response","219","417296","0.0-2.0-1.36","J.W.","2","pretest","true","3541361","null","../img/tt/486tt.jpg","",""
"802","<p></p>","","recognized","html-keyboard-response","220","418099","0.0-2.0-2.36","J.W.","2","pretest","true","3541361","89","../img/tt/486tt.jpg","y",""
"null","../img/gs/486gs.jpg","","solution","image-keyboard-response","221","420105","0.0-2.0-3.36","J.W.","2","pretest","true","3541361","null","","",""
"null","../img/tt/486tt.jpg","","mooney2","image-keyboard-response","222","422107","0.0-2.0-4.36","J.W.","2","pretest","true","3541361","null","","",""
"1209","<p>How strong was your <strong>aha-experience</strong>?</p>","","aha","html-keyboard-response","223","423318","0.0-2.0-5.36","J.W.","2","pretest","true","3541361","51","../img/tt/486tt.jpg","","3"
"null","<div style=""font-size:60px;""> </div>","","fixation","html-keyboard-response","224","423521","0.0-2.0-0.37","J.W.","2","pretest","true","3541361","null","","",""
"null","../img/tt/243tt.jpg","","mooney1","image-keyboard-response","225","426526","0.0-2.0-1.37","J.W.","2","pretest","true","3541361","null","../img/tt/243tt.jpg","",""
"297","<p></p>","","recognized","html-keyboard-response","226","426823","0.0-2.0-2.37","J.W.","2","pretest","true","3541361","78","../img/tt/243tt.jpg","n",""
"null","../img/gs/243gs.jpg","","solution","image-keyboard-response","227","428826","0.0-2.0-3.37","J.W.","2","pretest","true","3541361","null","","",""
"null","../img/tt/243tt.jpg","","mooney2","image-keyboard-response","228","430828","0.0-2.0-4.37","J.W.","2","pretest","true","3541361","null","","",""
"556","<p>How strong was your <strong>aha-experience</strong>?</p>","","aha","html-keyboard-response","229","431386","0.0-2.0-5.37","J.W.","2","pretest","true","3541361","51","../img/tt/243tt.jpg","","3"
"null","<div style=""font-size:60px;""> </div>","","fixation","html-keyboard-response","230","431588","0.0-2.0-0.38","J.W.","2","pretest","true","3541361","null","","",""
"null","../img/tt/1343tt.jpg","","mooney1","image-keyboard-response","231","434590","0.0-2.0-1.38","J.W.","2","pretest","true","3541361","null","../img/tt/1343tt.jpg","",""
"747","<p></p>","","recognized","html-keyboard-response","232","435337","0.0-2.0-2.38","J.W.","2","pretest","true","3541361","89","../img/tt/1343tt.jpg","y",""
"null","../img/gs/1343gs.jpg","","solution","image-keyboard-response","233","437341","0.0-2.0-3.38","J.W.","2","pretest","true","3541361","null","","",""
"null","../img/tt/1343tt.jpg","","mooney2","image-keyboard-response","234","439342","0.0-2.0-4.38","J.W.","2","pretest","true","3541361","null","","",""
"307","<p>How strong was your <strong>aha-experience</strong>?</p>","","aha","html-keyboard-response","235","439651","0.0-2.0-5.38","J.W.","2","pretest","true","3541361","50","../img/tt/1343tt.jpg","","2"
"null","<div style=""font-size:60px;""> </div>","","fixation","html-keyboard-response","236","439853","0.0-2.0-0.39","J.W.","2","pretest","true","3541361","null","","",""
"null","../img/tt/573tt.jpg","","mooney1","image-keyboard-response","237","442856","0.0-2.0-1.39","J.W.","2","pretest","true","3541361","null","../img/tt/573tt.jpg","",""
"538","<p></p>","","recognized","html-keyboard-response","238","443396","0.0-2.0-2.39","J.W.","2","pretest","true","3541361","89","../img/tt/573tt.jpg","y",""
"null","../img/gs/573gs.jpg","","solution","image-keyboard-response","239","445399","0.0-2.0-3.39","J.W.","2","pretest","true","3541361","null","","",""
"null","../img/tt/573tt.jpg","","mooney2","image-keyboard-response","240","447401","0.0-2.0-4.39","J.W.","2","pretest","true","3541361","null","","",""
"372","<p>How strong was your <strong>aha-experience</strong>?</p>","","aha","html-keyboard-response","241","447774","0.0-2.0-5.39","J.W.","2","pretest","true","3541361","54","../img/tt/573tt.jpg","","6"
"null","<div style=""font-size:60px;""> </div>","","fixation","html-keyboard-response","242","447976","0.0-2.0-0.40","J.W.","2","pretest","true","3541361","null","","",""
"null","../img/tt/297tt.jpg","","mooney1","image-keyboard-response","243","450978","0.0-2.0-1.40","J.W.","2","pretest","true","3541361","null","../img/tt/297tt.jpg","",""
"789","<p></p>","","recognized","html-keyboard-response","244","451768","0.0-2.0-2.40","J.W.","2","pretest","true","3541361","89","../img/tt/297tt.jpg","y",""
"null","../img/gs/297gs.jpg","","solution","image-keyboard-response","245","453772","0.0-2.0-3.40","J.W.","2","pretest","true","3541361","null","","",""
"null","../img/tt/297tt.jpg","","mooney2","image-keyboard-response","246","455775","0.0-2.0-4.40","J.W.","2","pretest","true","3541361","null","","",""
"642","<p>How strong was your <strong>aha-experience</strong>?</p>","","aha","html-keyboard-response","247","456418","0.0-2.0-5.40","J.W.","2","pretest","true","3541361","53","../img/tt/297tt.jpg","","5"
"null","<div style=""font-size:60px;""> </div>","","fixation","html-keyboard-response","248","456620","0.0-2.0-0.41","J.W.","2","pretest","true","3541361","null","","",""
"null","../img/tt/420tt.jpg","","mooney1","image-keyboard-response","249","459624","0.0-2.0-1.41","J.W.","2","pretest","true","3541361","null","../img/tt/420tt.jpg","",""
"324","<p></p>","","recognized","html-keyboard-response","250","459950","0.0-2.0-2.41","J.W.","2","pretest","true","3541361","78","../img/tt/420tt.jpg","n",""
"null","../img/gs/420gs.jpg","","solution","image-keyboard-response","251","461952","0.0-2.0-3.41","J.W.","2","pretest","true","3541361","null","","",""
"null","../img/tt/420tt.jpg","","mooney2","image-keyboard-response","252","463954","0.0-2.0-4.41","J.W.","2","pretest","true","3541361","null","","",""
"750","<p>How strong was your <strong>aha-experience</strong>?</p>","","aha","html-keyboard-response","253","464706","0.0-2.0-5.41","J.W.","2","pretest","true","3541361","50","../img/tt/420tt.jpg","","2"
"null","<div style=""font-size:60px;""> </div>","","fixation","html-keyboard-response","254","464907","0.0-2.0-0.42","J.W.","2","pretest","true","3541361","null","","",""
"null","../img/tt/314tt.jpg","","mooney1","image-keyboard-response","255","467912","0.0-2.0-1.42","J.W.","2","pretest","true","3541361","null","../img/tt/314tt.jpg","",""
"715","<p></p>","","recognized","html-keyboard-response","256","468627","0.0-2.0-2.42","J.W.","2","pretest","true","3541361","78","../img/tt/314tt.jpg","n",""
"null","../img/gs/314gs.jpg","","solution","image-keyboard-response","257","470630","0.0-2.0-3.42","J.W.","2","pretest","true","3541361","null","","",""
"null","../img/tt/314tt.jpg","","mooney2","image-keyboard-response","258","472633","0.0-2.0-4.42","J.W.","2","pretest","true","3541361","null","","",""
"447","<p>How strong was your <strong>aha-experience</strong>?</p>","","aha","html-keyboard-response","259","473082","0.0-2.0-5.42","J.W.","2","pretest","true","3541361","49","../img/tt/314tt.jpg","","1"
"null","<div style=""font-size:60px;""> </div>","","fixation","html-keyboard-response","260","473283","0.0-2.0-0.43","J.W.","2","pretest","true","3541361","null","","",""
"null","../img/tt/206tt.jpg","","mooney1","image-keyboard-response","261","476285","0.0-2.0-1.43","J.W.","2","pretest","true","3541361","null","../img/tt/206tt.jpg","",""
"321","<p></p>","","recognized","html-keyboard-response","262","476607","0.0-2.0-2.43","J.W.","2","pretest","true","3541361","78","../img/tt/206tt.jpg","n",""
"null","../img/gs/206gs.jpg","","solution","image-keyboard-response","263","478610","0.0-2.0-3.43","J.W.","2","pretest","true","3541361","null","","",""
"null","../img/tt/206tt.jpg","","mooney2","image-keyboard-response","264","480613","0.0-2.0-4.43","J.W.","2","pretest","true","3541361","null","","",""
"515","<p>How strong was your <strong>aha-experience</strong>?</p>","","aha","html-keyboard-response","265","481130","0.0-2.0-5.43","J.W.","2","pretest","true","3541361","50","../img/tt/206tt.jpg","","2"
"null","<div style=""font-size:60px;""> </div>","","fixation","html-keyboard-response","266","481332","0.0-2.0-0.44","J.W.","2","pretest","true","3541361","null","","",""
"null","../img/tt/374tt.jpg","","mooney1","image-keyboard-response","267","484333","0.0-2.0-1.44","J.W.","2","pretest","true","3541361","null","../img/tt/374tt.jpg","",""
"756","<p></p>","","recognized","html-keyboard-response","268","485091","0.0-2.0-2.44","J.W.","2","pretest","true","3541361","78","../img/tt/374tt.jpg","n",""
"null","../img/gs/374gs.jpg","","solution","image-keyboard-response","269","487094","0.0-2.0-3.44","J.W.","2","pretest","true","3541361","null","","",""
"null","../img/tt/374tt.jpg","","mooney2","image-keyboard-response","270","489096","0.0-2.0-4.44","J.W.","2","pretest","true","3541361","null","","",""
"491","<p>How strong was your <strong>aha-experience</strong>?</p>","","aha","html-keyboard-response","271","489587","0.0-2.0-5.44","J.W.","2","pretest","true","3541361","52","../img/tt/374tt.jpg","","4"
"null","<div style=""font-size:60px;""> </div>","","fixation","html-keyboard-response","272","489789","0.0-2.0-0.45","J.W.","2","pretest","true","3541361","null","","",""
"null","../img/tt/188tt.jpg","","mooney1","image-keyboard-response","273","492791","0.0-2.0-1.45","J.W.","2","pretest","true","3541361","null","../img/tt/188tt.jpg","",""
"407","<p></p>","","recognized","html-keyboard-response","274","493200","0.0-2.0-2.45","J.W.","2","pretest","true","3541361","78","../img/tt/188tt.jpg","n",""
"null","../img/gs/188gs.jpg","","solution","image-keyboard-response","275","495203","0.0-2.0-3.45","J.W.","2","pretest","true","3541361","null","","",""
"null","../img/tt/188tt.jpg","","mooney2","image-keyboard-response","276","497205","0.0-2.0-4.45","J.W.","2","pretest","true","3541361","null","","",""
"352","<p>How strong was your <strong>aha-experience</strong>?</p>","","aha","html-keyboard-response","277","497559","0.0-2.0-5.45","J.W.","2","pretest","true","3541361","49","../img/tt/188tt.jpg","","1"
"null","<div style=""font-size:60px;""> </div>","","fixation","html-keyboard-response","278","497760","0.0-2.0-0.46","J.W.","2","pretest","true","3541361","null","","",""
"null","../img/tt/437tt.jpg","","mooney1","image-keyboard-response","279","500762","0.0-2.0-1.46","J.W.","2","pretest","true","3541361","null","../img/tt/437tt.jpg","",""
"707","<p></p>","","recognized","html-keyboard-response","280","501470","0.0-2.0-2.46","J.W.","2","pretest","true","3541361","78","../img/tt/437tt.jpg","n",""
"null","../img/gs/437gs.jpg","","solution","image-keyboard-response","281","503474","0.0-2.0-3.46","J.W.","2","pretest","true","3541361","null","","",""
"null","../img/tt/437tt.jpg","","mooney2","image-keyboard-response","282","505477","0.0-2.0-4.46","J.W.","2","pretest","true","3541361","null","","",""
"611","<p>How strong was your <strong>aha-experience</strong>?</p>","","aha","html-keyboard-response","283","506090","0.0-2.0-5.46","J.W.","2","pretest","true","3541361","49","../img/tt/437tt.jpg","","1"
"null","<div style=""font-size:60px;""> </div>","","fixation","html-keyboard-response","284","506292","0.0-2.0-0.47","J.W.","2","pretest","true","3541361","null","","",""
"null","../img/tt/184tt.jpg","","mooney1","image-keyboard-response","285","509295","0.0-2.0-1.47","J.W.","2","pretest","true","3541361","null","../img/tt/184tt.jpg","",""
"347","<p></p>","","recognized","html-keyboard-response","286","509642","0.0-2.0-2.47","J.W.","2","pretest","true","3541361","78","../img/tt/184tt.jpg","n",""
"null","../img/gs/184gs.jpg","","solution","image-keyboard-response","287","511645","0.0-2.0-3.47","J.W.","2","pretest","true","3541361","null","","",""
"null","../img/tt/184tt.jpg","","mooney2","image-keyboard-response","288","513648","0.0-2.0-4.47","J.W.","2","pretest","true","3541361","null","","",""
"628","<p>How strong was your <strong>aha-experience</strong>?</p>","","aha","html-keyboard-response","289","514277","0.0-2.0-5.47","J.W.","2","pretest","true","3541361","49","../img/tt/184tt.jpg","","1"
"null","<div style=""font-size:60px;""> </div>","","fixation","html-keyboard-response","290","514479","0.0-2.0-0.48","J.W.","2","pretest","true","3541361","null","","",""
"null","../img/tt/597tt.jpg","","mooney1","image-keyboard-response","291","517483","0.0-2.0-1.48","J.W.","2","pretest","true","3541361","null","../img/tt/597tt.jpg","",""
"959","<p></p>","","recognized","html-keyboard-response","292","518444","0.0-2.0-2.48","J.W.","2","pretest","true","3541361","89","../img/tt/597tt.jpg","y",""
"null","../img/gs/597gs.jpg","","solution","image-keyboard-response","293","520447","0.0-2.0-3.48","J.W.","2","pretest","true","3541361","null","","",""
"null","../img/tt/597tt.jpg","","mooney2","image-keyboard-response","294","522449","0.0-2.0-4.48","J.W.","2","pretest","true","3541361","null","","",""
"425","<p>How strong was your <strong>aha-experience</strong>?</p>","","aha","html-keyboard-response","295","522875","0.0-2.0-5.48","J.W.","2","pretest","true","3541361","53","../img/tt/597tt.jpg","","5"
"null","<div style=""font-size:60px;""> </div>","","fixation","html-keyboard-response","296","523078","0.0-2.0-0.49","J.W.","2","pretest","true","3541361","null","","",""
"null","../img/tt/365tt.jpg","","mooney1","image-keyboard-response","297","526080","0.0-2.0-1.49","J.W.","2","pretest","true","3541361","null","../img/tt/365tt.jpg","",""
"720","<p></p>","","recognized","html-keyboard-response","298","526802","0.0-2.0-2.49","J.W.","2","pretest","true","3541361","78","../img/tt/365tt.jpg","n",""
"null","../img/gs/365gs.jpg","","solution","image-keyboard-response","299","528805","0.0-2.0-3.49","J.W.","2","pretest","true","3541361","null","","",""
"null","../img/tt/365tt.jpg","","mooney2","image-keyboard-response","300","530807","0.0-2.0-4.49","J.W.","2","pretest","true","3541361","null","","",""
"380","<p>How strong was your <strong>aha-experience</strong>?</p>","","aha","html-keyboard-response","301","531188","0.0-2.0-5.49","J.W.","2","pretest","true","3541361","53","../img/tt/365tt.jpg","","5"
"null","<div style=""font-size:60px;""> </div>","","fixation","html-keyboard-response","302","531391","0.0-2.0-0.50","J.W.","2","pretest","true","3541361","null","","",""
"null","../img/tt/1307tt.jpg","","mooney1","image-keyboard-response","303","534395","0.0-2.0-1.50","J.W.","2","pretest","true","3541361","null","../img/tt/1307tt.jpg","",""
"393","<p></p>","","recognized","html-keyboard-response","304","534789","0.0-2.0-2.50","J.W.","2","pretest","true","3541361","78","../img/tt/1307tt.jpg","n",""
"null","../img/gs/1307gs.jpg","","solution","image-keyboard-response","305","536791","0.0-2.0-3.50","J.W.","2","pretest","true","3541361","null","","",""
"null","../img/tt/1307tt.jpg","","mooney2","image-keyboard-response","306","538794","0.0-2.0-4.50","J.W.","2","pretest","true","3541361","null","","",""
"729","<p>How strong was your <strong>aha-experience</strong>?</p>","","aha","html-keyboard-response","307","539524","0.0-2.0-5.50","J.W.","2","pretest","true","3541361","50","../img/tt/1307tt.jpg","","2"
"null","<div style=""font-size:60px;""> </div>","","fixation","html-keyboard-response","308","539726","0.0-2.0-0.51","J.W.","2","pretest","true","3541361","null","","",""
"null","../img/tt/1296tt.jpg","","mooney1","image-keyboard-response","309","542728","0.0-2.0-1.51","J.W.","2","pretest","true","3541361","null","../img/tt/1296tt.jpg","",""
"733","<p></p>","","recognized","html-keyboard-response","310","543462","0.0-2.0-2.51","J.W.","2","pretest","true","3541361","89","../img/tt/1296tt.jpg","y",""
"null","../img/gs/1296gs.jpg","","solution","image-keyboard-response","311","545465","0.0-2.0-3.51","J.W.","2","pretest","true","3541361","null","","",""
"null","../img/tt/1296tt.jpg","","mooney2","image-keyboard-response","312","547468","0.0-2.0-4.51","J.W.","2","pretest","true","3541361","null","","",""
"476","<p>How strong was your <strong>aha-experience</strong>?</p>","","aha","html-keyboard-response","313","547945","0.0-2.0-5.51","J.W.","2","pretest","true","3541361","53","../img/tt/1296tt.jpg","","5"
"null","<div style=""font-size:60px;""> </div>","","fixation","html-keyboard-response","314","548148","0.0-2.0-0.52","J.W.","2","pretest","true","3541361","null","","",""
"null","../img/tt/1306tt.jpg","","mooney1","image-keyboard-response","315","551152","0.0-2.0-1.52","J.W.","2","pretest","true","3541361","null","../img/tt/1306tt.jpg","",""
"256","<p></p>","","recognized","html-keyboard-response","316","551409","0.0-2.0-2.52","J.W.","2","pretest","true","3541361","89","../img/tt/1306tt.jpg","y",""
"null","../img/gs/1306gs.jpg","","solution","image-keyboard-response","317","553412","0.0-2.0-3.52","J.W.","2","pretest","true","3541361","null","","",""
"null","../img/tt/1306tt.jpg","","mooney2","image-keyboard-response","318","555415","0.0-2.0-4.52","J.W.","2","pretest","true","3541361","null","","",""
"518","<p>How strong was your <strong>aha-experience</strong>?</p>","","aha","html-keyboard-response","319","555935","0.0-2.0-5.52","J.W.","2","pretest","true","3541361","51","../img/tt/1306tt.jpg","","3"
"null","<div style=""font-size:60px;""> </div>","","fixation","html-keyboard-response","320","556137","0.0-2.0-0.53","J.W.","2","pretest","true","3541361","null","","",""
"null","../img/tt/503tt.jpg","","mooney1","image-keyboard-response","321","559140","0.0-2.0-1.53","J.W.","2","pretest","true","3541361","null","../img/tt/503tt.jpg","",""
"404","<p></p>","","recognized","html-keyboard-response","322","559545","0.0-2.0-2.53","J.W.","2","pretest","true","3541361","78","../img/tt/503tt.jpg","n",""
"null","../img/gs/503gs.jpg","","solution","image-keyboard-response","323","561547","0.0-2.0-3.53","J.W.","2","pretest","true","3541361","null","","",""
"null","../img/tt/503tt.jpg","","mooney2","image-keyboard-response","324","563548","0.0-2.0-4.53","J.W.","2","pretest","true","3541361","null","","",""
"339","<p>How strong was your <strong>aha-experience</strong>?</p>","","aha","html-keyboard-response","325","563887","0.0-2.0-5.53","J.W.","2","pretest","true","3541361","54","../img/tt/503tt.jpg","","6"
"null","<div style=""font-size:60px;""> </div>","","fixation","html-keyboard-response","326","564090","0.0-2.0-0.54","J.W.","2","pretest","true","3541361","null","","",""
"null","../img/tt/408tt.jpg","","mooney1","image-keyboard-response","327","567092","0.0-2.0-1.54","J.W.","2","pretest","true","3541361","null","../img/tt/408tt.jpg","",""
"862","<p></p>","","recognized","html-keyboard-response","328","567956","0.0-2.0-2.54","J.W.","2","pretest","true","3541361","89","../img/tt/408tt.jpg","y",""
"null","../img/gs/408gs.jpg","","solution","image-keyboard-response","329","569960","0.0-2.0-3.54","J.W.","2","pretest","true","3541361","null","","",""
"null","../img/tt/408tt.jpg","","mooney2","image-keyboard-response","330","571962","0.0-2.0-4.54","J.W.","2","pretest","true","3541361","null","","",""
"1307","<p>How strong was your <strong>aha-experience</strong>?</p>","","aha","html-keyboard-response","331","573271","0.0-2.0-5.54","J.W.","2","pretest","true","3541361","53","../img/tt/408tt.jpg","","5"
"null","<div style=""font-size:60px;""> </div>","","fixation","html-keyboard-response","332","573473","0.0-2.0-0.55","J.W.","2","pretest","true","3541361","null","","",""
"null","../img/tt/416tt.jpg","","mooney1","image-keyboard-response","333","576476","0.0-2.0-1.55","J.W.","2","pretest","true","3541361","null","../img/tt/416tt.jpg","",""
"642","<p></p>","","recognized","html-keyboard-response","334","577120","0.0-2.0-2.55","J.W.","2","pretest","true","3541361","89","../img/tt/416tt.jpg","y",""
"null","../img/gs/416gs.jpg","","solution","image-keyboard-response","335","579123","0.0-2.0-3.55","J.W.","2","pretest","true","3541361","null","","",""
"null","../img/tt/416tt.jpg","","mooney2","image-keyboard-response","336","581126","0.0-2.0-4.55","J.W.","2","pretest","true","3541361","null","","",""
"309","<p>How strong was your <strong>aha-experience</strong>?</p>","","aha","html-keyboard-response","337","581436","0.0-2.0-5.55","J.W.","2","pretest","true","3541361","54","../img/tt/416tt.jpg","","6"
"null","<div style=""font-size:60px;""> </div>","","fixation","html-keyboard-response","338","581638","0.0-2.0-0.56","J.W.","2","pretest","true","3541361","null","","",""
"null","../img/tt/400tt.jpg","","mooney1","image-keyboard-response","339","584641","0.0-2.0-1.56","J.W.","2","pretest","true","3541361","null","../img/tt/400tt.jpg","",""
"314","<p></p>","","recognized","html-keyboard-response","340","584956","0.0-2.0-2.56","J.W.","2","pretest","true","3541361","78","../img/tt/400tt.jpg","n",""
"null","../img/gs/400gs.jpg","","solution","image-keyboard-response","341","586959","0.0-2.0-3.56","J.W.","2","pretest","true","3541361","null","","",""
"null","../img/tt/400tt.jpg","","mooney2","image-keyboard-response","342","588962","0.0-2.0-4.56","J.W.","2","pretest","true","3541361","null","","",""
"920","<p>How strong was your <strong>aha-experience</strong>?</p>","","aha","html-keyboard-response","343","589883","0.0-2.0-5.56","J.W.","2","pretest","true","3541361","51","../img/tt/400tt.jpg","","3"
"null","<div style=""font-size:60px;""> </div>","","fixation","html-keyboard-response","344","590086","0.0-2.0-0.57","J.W.","2","pretest","true","3541361","null","","",""
"null","../img/tt/407tt.jpg","","mooney1","image-keyboard-response","345","593088","0.0-2.0-1.57","J.W.","2","pretest","true","3541361","null","../img/tt/407tt.jpg","",""
"813","<p></p>","","recognized","html-keyboard-response","346","593902","0.0-2.0-2.57","J.W.","2","pretest","true","3541361","89","../img/tt/407tt.jpg","y",""
"null","../img/gs/407gs.jpg","","solution","image-keyboard-response","347","595905","0.0-2.0-3.57","J.W.","2","pretest","true","3541361","null","","",""
"null","../img/tt/407tt.jpg","","mooney2","image-keyboard-response","348","597908","0.0-2.0-4.57","J.W.","2","pretest","true","3541361","null","","",""
"1550","<p>How strong was your <strong>aha-experience</strong>?</p>","","aha","html-keyboard-response","349","599460","0.0-2.0-5.57","J.W.","2","pretest","true","3541361","52","../img/tt/407tt.jpg","","4"
"null","<div style=""font-size:60px;""> </div>","","fixation","html-keyboard-response","350","599663","0.0-2.0-0.58","J.W.","2","pretest","true","3541361","null","","",""
"null","../img/tt/312tt.jpg","","mooney1","image-keyboard-response","351","602666","0.0-2.0-1.58","J.W.","2","pretest","true","3541361","null","../img/tt/312tt.jpg","",""
"383","<p></p>","","recognized","html-keyboard-response","352","603051","0.0-2.0-2.58","J.W.","2","pretest","true","3541361","78","../img/tt/312tt.jpg","n",""
"null","../img/gs/312gs.jpg","","solution","image-keyboard-response","353","605054","0.0-2.0-3.58","J.W.","2","pretest","true","3541361","null","","",""
"null","../img/tt/312tt.jpg","","mooney2","image-keyboard-response","354","607056","0.0-2.0-4.58","J.W.","2","pretest","true","3541361","null","","",""
"314","<p>How strong was your <strong>aha-experience</strong>?</p>","","aha","html-keyboard-response","355","607372","0.0-2.0-5.58","J.W.","2","pretest","true","3541361","49","../img/tt/312tt.jpg","","1"
"null","<div style=""font-size:60px;""> </div>","","fixation","html-keyboard-response","356","607574","0.0-2.0-0.59","J.W.","2","pretest","true","3541361","null","","",""
"null","../img/tt/1324tt.jpg","","mooney1","image-keyboard-response","357","610575","0.0-2.0-1.59","J.W.","2","pretest","true","3541361","null","../img/tt/1324tt.jpg","",""
"773","<p></p>","","recognized","html-keyboard-response","358","611349","0.0-2.0-2.59","J.W.","2","pretest","true","3541361","78","../img/tt/1324tt.jpg","n",""
"null","../img/gs/1324gs.jpg","","solution","image-keyboard-response","359","613352","0.0-2.0-3.59","J.W.","2","pretest","true","3541361","null","","",""
"null","../img/tt/1324tt.jpg","","mooney2","image-keyboard-response","360","615355","0.0-2.0-4.59","J.W.","2","pretest","true","3541361","null","","",""
"348","<p>How strong was your <strong>aha-experience</strong>?</p>","","aha","html-keyboard-response","361","615705","0.0-2.0-5.59","J.W.","2","pretest","true","3541361","49","../img/tt/1324tt.jpg","","1"
"null","<div style=""font-size:60px;""> </div>","","fixation","html-keyboard-response","362","615907","0.0-2.0-0.60","J.W.","2","pretest","true","3541361","null","","",""
"null","../img/tt/404tt.jpg","","mooney1","image-keyboard-response","363","618909","0.0-2.0-1.60","J.W.","2","pretest","true","3541361","null","../img/tt/404tt.jpg","",""
"734","<p></p>","","recognized","html-keyboard-response","364","619644","0.0-2.0-2.60","J.W.","2","pretest","true","3541361","78","../img/tt/404tt.jpg","n",""
"null","../img/gs/404gs.jpg","","solution","image-keyboard-response","365","621647","0.0-2.0-3.60","J.W.","2","pretest","true","3541361","null","","",""
"null","../img/tt/404tt.jpg","","mooney2","image-keyboard-response","366","623649","0.0-2.0-4.60","J.W.","2","pretest","true","3541361","null","","",""
"505","<p>How strong was your <strong>aha-experience</strong>?</p>","","aha","html-keyboard-response","367","624155","0.0-2.0-5.60","J.W.","2","pretest","true","3541361","49","../img/tt/404tt.jpg","","1"
"null","<div style=""font-size:60px;""> </div>","","fixation","html-keyboard-response","368","624358","0.0-2.0-0.61","J.W.","2","pretest","true","3541361","null","","",""
"null","../img/tt/544tt.jpg","","mooney1","image-keyboard-response","369","627360","0.0-2.0-1.61","J.W.","2","pretest","true","3541361","null","../img/tt/544tt.jpg","",""
"586","<p></p>","","recognized","html-keyboard-response","370","627947","0.0-2.0-2.61","J.W.","2","pretest","true","3541361","78","../img/tt/544tt.jpg","n",""
"null","../img/gs/544gs.jpg","","solution","image-keyboard-response","371","629951","0.0-2.0-3.61","J.W.","2","pretest","true","3541361","null","","",""
"null","../img/tt/544tt.jpg","","mooney2","image-keyboard-response","372","631953","0.0-2.0-4.61","J.W.","2","pretest","true","3541361","null","","",""
"363","<p>How strong was your <strong>aha-experience</strong>?</p>","","aha","html-keyboard-response","373","632318","0.0-2.0-5.61","J.W.","2","pretest","true","3541361","49","../img/tt/544tt.jpg","","1"
"null","<div style=""font-size:60px;""> </div>","","fixation","html-keyboard-response","374","632521","0.0-2.0-0.62","J.W.","2","pretest","true","3541361","null","","",""
"null","../img/tt/301tt.jpg","","mooney1","image-keyboard-response","375","635524","0.0-2.0-1.62","J.W.","2","pretest","true","3541361","null","../img/tt/301tt.jpg","",""
"499","<p></p>","","recognized","html-keyboard-response","376","636024","0.0-2.0-2.62","J.W.","2","pretest","true","3541361","78","../img/tt/301tt.jpg","n",""
"null","../img/gs/301gs.jpg","","solution","image-keyboard-response","377","638029","0.0-2.0-3.62","J.W.","2","pretest","true","3541361","null","","",""
"null","../img/tt/301tt.jpg","","mooney2","image-keyboard-response","378","640031","0.0-2.0-4.62","J.W.","2","pretest","true","3541361","null","","",""
"1187","<p>How strong was your <strong>aha-experience</strong>?</p>","","aha","html-keyboard-response","379","641219","0.0-2.0-5.62","J.W.","2","pretest","true","3541361","51","../img/tt/301tt.jpg","","3"
"null","<div style=""font-size:60px;""> </div>","","fixation","html-keyboard-response","380","641422","0.0-2.0-0.63","J.W.","2","pretest","true","3541361","null","","",""
"null","../img/tt/472tt.jpg","","mooney1","image-keyboard-response","381","644426","0.0-2.0-1.63","J.W.","2","pretest","true","3541361","null","../img/tt/472tt.jpg","",""
"366","<p></p>","","recognized","html-keyboard-response","382","644793","0.0-2.0-2.63","J.W.","2","pretest","true","3541361","78","../img/tt/472tt.jpg","n",""
"null","../img/gs/472gs.jpg","","solution","image-keyboard-response","383","646796","0.0-2.0-3.63","J.W.","2","pretest","true","3541361","null","","",""
"null","../img/tt/472tt.jpg","","mooney2","image-keyboard-response","384","648799","0.0-2.0-4.63","J.W.","2","pretest","true","3541361","null","","",""
"296","<p>How strong was your <strong>aha-experience</strong>?</p>","","aha","html-keyboard-response","385","649097","0.0-2.0-5.63","J.W.","2","pretest","true","3541361","52","../img/tt/472tt.jpg","","4"
"null","<div style=""font-size:60px;""> </div>","","fixation","html-keyboard-response","386","649298","0.0-2.0-0.64","J.W.","2","pretest","true","3541361","null","","",""
"null","../img/tt/222tt.jpg","","mooney1","image-keyboard-response","387","652301","0.0-2.0-1.64","J.W.","2","pretest","true","3541361","null","../img/tt/222tt.jpg","",""
"398","<p></p>","","recognized","html-keyboard-response","388","652700","0.0-2.0-2.64","J.W.","2","pretest","true","3541361","78","../img/tt/222tt.jpg","n",""
"null","../img/gs/222gs.jpg","","solution","image-keyboard-response","389","654705","0.0-2.0-3.64","J.W.","2","pretest","true","3541361","null","","",""
"null","../img/tt/222tt.jpg","","mooney2","image-keyboard-response","390","656707","0.0-2.0-4.64","J.W.","2","pretest","true","3541361","null","","",""
"1011","<p>How strong was your <strong>aha-experience</strong>?</p>","","aha","html-keyboard-response","391","657720","0.0-2.0-5.64","J.W.","2","pretest","true","3541361","53","../img/tt/222tt.jpg","","5"
"null","<div style=""font-size:60px;""> </div>","","fixation","html-keyboard-response","392","657922","0.0-2.0-0.65","J.W.","2","pretest","true","3541361","null","","",""
"null","../img/tt/263tt.jpg","","mooney1","image-keyboard-response","393","660924","0.0-2.0-1.65","J.W.","2","pretest","true","3541361","null","../img/tt/263tt.jpg","",""
"907","<p></p>","","recognized","html-keyboard-response","394","661833","0.0-2.0-2.65","J.W.","2","pretest","true","3541361","78","../img/tt/263tt.jpg","n",""
"null","../img/gs/263gs.jpg","","solution","image-keyboard-response","395","663836","0.0-2.0-3.65","J.W.","2","pretest","true","3541361","null","","",""
"null","../img/tt/263tt.jpg","","mooney2","image-keyboard-response","396","665839","0.0-2.0-4.65","J.W.","2","pretest","true","3541361","null","","",""
"1744","<p>How strong was your <strong>aha-experience</strong>?</p>","","aha","html-keyboard-response","397","667585","0.0-2.0-5.65","J.W.","2","pretest","true","3541361","54","../img/tt/263tt.jpg","","6"
"null","<div style=""font-size:60px;""> </div>","","fixation","html-keyboard-response","398","667787","0.0-2.0-0.66","J.W.","2","pretest","true","3541361","null","","",""
"null","../img/tt/520tt.jpg","","mooney1","image-keyboard-response","399","670791","0.0-2.0-1.66","J.W.","2","pretest","true","3541361","null","../img/tt/520tt.jpg","",""
"733","<p></p>","","recognized","html-keyboard-response","400","671526","0.0-2.0-2.66","J.W.","2","pretest","true","3541361","78","../img/tt/520tt.jpg","n",""
"null","../img/gs/520gs.jpg","","solution","image-keyboard-response","401","673527","0.0-2.0-3.66","J.W.","2","pretest","true","3541361","null","","",""
"null","../img/tt/520tt.jpg","","mooney2","image-keyboard-response","402","675528","0.0-2.0-4.66","J.W.","2","pretest","true","3541361","null","","",""
"559","<p>How strong was your <strong>aha-experience</strong>?</p>","","aha","html-keyboard-response","403","676088","0.0-2.0-5.66","J.W.","2","pretest","true","3541361","52","../img/tt/520tt.jpg","","4"
"null","<div style=""font-size:60px;""> </div>","","fixation","html-keyboard-response","404","676290","0.0-2.0-0.67","J.W.","2","pretest","true","3541361","null","","",""
"null","../img/tt/386tt.jpg","","mooney1","image-keyboard-response","405","679293","0.0-2.0-1.67","J.W.","2","pretest","true","3541361","null","../img/tt/386tt.jpg","",""
"371","<p></p>","","recognized","html-keyboard-response","406","679664","0.0-2.0-2.67","J.W.","2","pretest","true","3541361","89","../img/tt/386tt.jpg","y",""
"null","../img/gs/386gs.jpg","","solution","image-keyboard-response","407","681667","0.0-2.0-3.67","J.W.","2","pretest","true","3541361","null","","",""
"null","../img/tt/386tt.jpg","","mooney2","image-keyboard-response","408","683670","0.0-2.0-4.67","J.W.","2","pretest","true","3541361","null","","",""
"649","<p>How strong was your <strong>aha-experience</strong>?</p>","","aha","html-keyboard-response","409","684321","0.0-2.0-5.67","J.W.","2","pretest","true","3541361","55","../img/tt/386tt.jpg","","7"
"null","<div style=""font-size:60px;""> </div>","","fixation","html-keyboard-response","410","684523","0.0-2.0-0.68","J.W.","2","pretest","true","3541361","null","","",""
"null","../img/tt/194tt.jpg","","mooney1","image-keyboard-response","411","687525","0.0-2.0-1.68","J.W.","2","pretest","true","3541361","null","../img/tt/194tt.jpg","",""
"830","<p></p>","","recognized","html-keyboard-response","412","688355","0.0-2.0-2.68","J.W.","2","pretest","true","3541361","89","../img/tt/194tt.jpg","y",""
"null","../img/gs/194gs.jpg","","solution","image-keyboard-response","413","690359","0.0-2.0-3.68","J.W.","2","pretest","true","3541361","null","","",""
"null","../img/tt/194tt.jpg","","mooney2","image-keyboard-response","414","692362","0.0-2.0-4.68","J.W.","2","pretest","true","3541361","null","","",""
"492","<p>How strong was your <strong>aha-experience</strong>?</p>","","aha","html-keyboard-response","415","692855","0.0-2.0-5.68","J.W.","2","pretest","true","3541361","53","../img/tt/194tt.jpg","","5"
"null","<div style=""font-size:60px;""> </div>","","fixation","html-keyboard-response","416","693057","0.0-2.0-0.69","J.W.","2","pretest","true","3541361","null","","",""
"null","../img/tt/1370tt.jpg","","mooney1","image-keyboard-response","417","696061","0.0-2.0-1.69","J.W.","2","pretest","true","3541361","null","../img/tt/1370tt.jpg","",""
"352","<p></p>","","recognized","html-keyboard-response","418","696415","0.0-2.0-2.69","J.W.","2","pretest","true","3541361","89","../img/tt/1370tt.jpg","y",""
"null","../img/gs/1370gs.jpg","","solution","image-keyboard-response","419","698417","0.0-2.0-3.69","J.W.","2","pretest","true","3541361","null","","",""
"null","../img/tt/1370tt.jpg","","mooney2","image-keyboard-response","420","700419","0.0-2.0-4.69","J.W.","2","pretest","true","3541361","null","","",""
"350","<p>How strong was your <strong>aha-experience</strong>?</p>","","aha","html-keyboard-response","421","700770","0.0-2.0-5.69","J.W.","2","pretest","true","3541361","54","../img/tt/1370tt.jpg","","6"
"null","<div style=""font-size:60px;""> </div>","","fixation","html-keyboard-response","422","700973","0.0-2.0-0.70","J.W.","2","pretest","true","3541361","null","","",""
"null","../img/tt/1330tt.jpg","","mooney1","image-keyboard-response","423","703975","0.0-2.0-1.70","J.W.","2","pretest","true","3541361","null","../img/tt/1330tt.jpg","",""
"323","<p></p>","","recognized","html-keyboard-response","424","704302","0.0-2.0-2.70","J.W.","2","pretest","true","3541361","89","../img/tt/1330tt.jpg","y",""
"null","../img/gs/1330gs.jpg","","solution","image-keyboard-response","425","706304","0.0-2.0-3.70","J.W.","2","pretest","true","3541361","null","","",""
"null","../img/tt/1330tt.jpg","","mooney2","image-keyboard-response","426","708306","0.0-2.0-4.70","J.W.","2","pretest","true","3541361","null","","",""
"374","<p>How strong was your <strong>aha-experience</strong>?</p>","","aha","html-keyboard-response","427","708682","0.0-2.0-5.70","J.W.","2","pretest","true","3541361","54","../img/tt/1330tt.jpg","","6"
"null","<div style=""font-size:60px;""> </div>","","fixation","html-keyboard-response","428","708884","0.0-2.0-0.71","J.W.","2","pretest","true","3541361","null","","",""
"null","../img/tt/1341tt.jpg","","mooney1","image-keyboard-response","429","711887","0.0-2.0-1.71","J.W.","2","pretest","true","3541361","null","../img/tt/1341tt.jpg","",""
"320","<p></p>","","recognized","html-keyboard-response","430","712208","0.0-2.0-2.71","J.W.","2","pretest","true","3541361","89","../img/tt/1341tt.jpg","y",""
"null","../img/gs/1341gs.jpg","","solution","image-keyboard-response","431","714210","0.0-2.0-3.71","J.W.","2","pretest","true","3541361","null","","",""
"null","../img/tt/1341tt.jpg","","mooney2","image-keyboard-response","432","716213","0.0-2.0-4.71","J.W.","2","pretest","true","3541361","null","","",""
"318","<p>How strong was your <strong>aha-experience</strong>?</p>","","aha","html-keyboard-response","433","716532","0.0-2.0-5.71","J.W.","2","pretest","true","3541361","53","../img/tt/1341tt.jpg","","5"
"null","<div style=""font-size:60px;""> </div>","","fixation","html-keyboard-response","434","716734","0.0-2.0-0.72","J.W.","2","pretest","true","3541361","null","","",""
"null","../img/tt/433tt.jpg","","mooney1","image-keyboard-response","435","719737","0.0-2.0-1.72","J.W.","2","pretest","true","3541361","null","../img/tt/433tt.jpg","",""
"334","<p></p>","","recognized","html-keyboard-response","436","720072","0.0-2.0-2.72","J.W.","2","pretest","true","3541361","78","../img/tt/433tt.jpg","n",""
"null","../img/gs/433gs.jpg","","solution","image-keyboard-response","437","722074","0.0-2.0-3.72","J.W.","2","pretest","true","3541361","null","","",""
"null","../img/tt/433tt.jpg","","mooney2","image-keyboard-response","438","724076","0.0-2.0-4.72","J.W.","2","pretest","true","3541361","null","","",""
"491","<p>How strong was your <strong>aha-experience</strong>?</p>","","aha","html-keyboard-response","439","724569","0.0-2.0-5.72","J.W.","2","pretest","true","3541361","49","../img/tt/433tt.jpg","","1"
"null","<div style=""font-size:60px;""> </div>","","fixation","html-keyboard-response","440","724772","0.0-2.0-0.73","J.W.","2","pretest","true","3541361","null","","",""
"null","../img/tt/137tt.jpg","","mooney1","image-keyboard-response","441","727776","0.0-2.0-1.73","J.W.","2","pretest","true","3541361","null","../img/tt/137tt.jpg","",""
"442","<p></p>","","recognized","html-keyboard-response","442","728219","0.0-2.0-2.73","J.W.","2","pretest","true","3541361","89","../img/tt/137tt.jpg","y",""
"null","../img/gs/137gs.jpg","","solution","image-keyboard-response","443","730222","0.0-2.0-3.73","J.W.","2","pretest","true","3541361","null","","",""
"null","../img/tt/137tt.jpg","","mooney2","image-keyboard-response","444","732225","0.0-2.0-4.73","J.W.","2","pretest","true","3541361","null","","",""
"317","<p>How strong was your <strong>aha-experience</strong>?</p>","","aha","html-keyboard-response","445","732543","0.0-2.0-5.73","J.W.","2","pretest","true","3541361","54","../img/tt/137tt.jpg","","6"
"null","<div style=""font-size:60px;""> </div>","","fixation","html-keyboard-response","446","732745","0.0-2.0-0.74","J.W.","2","pretest","true","3541361","null","","",""
"null","../img/tt/458tt.jpg","","mooney1","image-keyboard-response","447","735747","0.0-2.0-1.74","J.W.","2","pretest","true","3541361","null","../img/tt/458tt.jpg","",""
"468","<p></p>","","recognized","html-keyboard-response","448","736216","0.0-2.0-2.74","J.W.","2","pretest","true","3541361","89","../img/tt/458tt.jpg","y",""
"null","../img/gs/458gs.jpg","","solution","image-keyboard-response","449","738220","0.0-2.0-3.74","J.W.","2","pretest","true","3541361","null","","",""
"null","../img/tt/458tt.jpg","","mooney2","image-keyboard-response","450","740221","0.0-2.0-4.74","J.W.","2","pretest","true","3541361","null","","",""
"1465","<p>How strong was your <strong>aha-experience</strong>?</p>","","aha","html-keyboard-response","451","741688","0.0-2.0-5.74","J.W.","2","pretest","true","3541361","52","../img/tt/458tt.jpg","","4"
"null","<div style=""font-size:60px;""> </div>","","fixation","html-keyboard-response","452","741890","0.0-2.0-0.75","J.W.","2","pretest","true","3541361","null","","",""
"null","../img/tt/460tt.jpg","","mooney1","image-keyboard-response","453","744893","0.0-2.0-1.75","J.W.","2","pretest","true","3541361","null","../img/tt/460tt.jpg","",""
"397","<p></p>","","recognized","html-keyboard-response","454","745291","0.0-2.0-2.75","J.W.","2","pretest","true","3541361","78","../img/tt/460tt.jpg","n",""
"null","../img/gs/460gs.jpg","","solution","image-keyboard-response","455","747295","0.0-2.0-3.75","J.W.","2","pretest","true","3541361","null","","",""
"null","../img/tt/460tt.jpg","","mooney2","image-keyboard-response","456","749298","0.0-2.0-4.75","J.W.","2","pretest","true","3541361","null","","",""
"476","<p>How strong was your <strong>aha-experience</strong>?</p>","","aha","html-keyboard-response","457","749776","0.0-2.0-5.75","J.W.","2","pretest","true","3541361","50","../img/tt/460tt.jpg","","2"
"null","<div style=""font-size:60px;""> </div>","","fixation","html-keyboard-response","458","749978","0.0-2.0-0.76","J.W.","2","pretest","true","3541361","null","","",""
"null","../img/tt/1337tt.jpg","","mooney1","image-keyboard-response","459","752980","0.0-2.0-1.76","J.W.","2","pretest","true","3541361","null","../img/tt/1337tt.jpg","",""
"693","<p></p>","","recognized","html-keyboard-response","460","753674","0.0-2.0-2.76","J.W.","2","pretest","true","3541361","89","../img/tt/1337tt.jpg","y",""
"null","../img/gs/1337gs.jpg","","solution","image-keyboard-response","461","755677","0.0-2.0-3.76","J.W.","2","pretest","true","3541361","null","","",""
"null","../img/tt/1337tt.jpg","","mooney2","image-keyboard-response","462","757680","0.0-2.0-4.76","J.W.","2","pretest","true","3541361","null","","",""
"371","<p>How strong was your <strong>aha-experience</strong>?</p>","","aha","html-keyboard-response","463","758053","0.0-2.0-5.76","J.W.","2","pretest","true","3541361","54","../img/tt/1337tt.jpg","","6"
"null","<div style=""font-size:60px;""> </div>","","fixation","html-keyboard-response","464","758255","0.0-2.0-0.77","J.W.","2","pretest","true","3541361","null","","",""
"null","../img/tt/603tt.jpg","","mooney1","image-keyboard-response","465","761258","0.0-2.0-1.77","J.W.","2","pretest","true","3541361","null","../img/tt/603tt.jpg","",""
"627","<p></p>","","recognized","html-keyboard-response","466","761887","0.0-2.0-2.77","J.W.","2","pretest","true","3541361","89","../img/tt/603tt.jpg","y",""
"null","../img/gs/603gs.jpg","","solution","image-keyboard-response","467","763891","0.0-2.0-3.77","J.W.","2","pretest","true","3541361","null","","",""
"null","../img/tt/603tt.jpg","","mooney2","image-keyboard-response","468","765893","0.0-2.0-4.77","J.W.","2","pretest","true","3541361","null","","",""
"832","<p>How strong was your <strong>aha-experience</strong>?</p>","","aha","html-keyboard-response","469","766728","0.0-2.0-5.77","J.W.","2","pretest","true","3541361","53","../img/tt/603tt.jpg","","5"
"null","<div style=""font-size:60px;""> </div>","","fixation","html-keyboard-response","470","766931","0.0-2.0-0.78","J.W.","2","pretest","true","3541361","null","","",""
"null","../img/tt/205tt.jpg","","mooney1","image-keyboard-response","471","769935","0.0-2.0-1.78","J.W.","2","pretest","true","3541361","null","../img/tt/205tt.jpg","",""
"356","<p></p>","","recognized","html-keyboard-response","472","770293","0.0-2.0-2.78","J.W.","2","pretest","true","3541361","89","../img/tt/205tt.jpg","y",""
"null","../img/gs/205gs.jpg","","solution","image-keyboard-response","473","772296","0.0-2.0-3.78","J.W.","2","pretest","true","3541361","null","","",""
"null","../img/tt/205tt.jpg","","mooney2","image-keyboard-response","474","774298","0.0-2.0-4.78","J.W.","2","pretest","true","3541361","null","","",""
"326","<p>How strong was your <strong>aha-experience</strong>?</p>","","aha","html-keyboard-response","475","774626","0.0-2.0-5.78","J.W.","2","pretest","true","3541361","54","../img/tt/205tt.jpg","","6"
"null","<div style=""font-size:60px;""> </div>","","fixation","html-keyboard-response","476","774828","0.0-2.0-0.79","J.W.","2","pretest","true","3541361","null","","",""
"null","../img/tt/440tt.jpg","","mooney1","image-keyboard-response","477","777831","0.0-2.0-1.79","J.W.","2","pretest","true","3541361","null","../img/tt/440tt.jpg","",""
"708","<p></p>","","recognized","html-keyboard-response","478","778540","0.0-2.0-2.79","J.W.","2","pretest","true","3541361","78","../img/tt/440tt.jpg","n",""
"null","../img/gs/440gs.jpg","","solution","image-keyboard-response","479","780542","0.0-2.0-3.79","J.W.","2","pretest","true","3541361","null","","",""
"null","../img/tt/440tt.jpg","","mooney2","image-keyboard-response","480","782543","0.0-2.0-4.79","J.W.","2","pretest","true","3541361","null","","",""
"576","<p>How strong was your <strong>aha-experience</strong>?</p>","","aha","html-keyboard-response","481","783121","0.0-2.0-5.79","J.W.","2","pretest","true","3541361","52","../img/tt/440tt.jpg","","4"
"null","<div style=""font-size:60px;""> </div>","","fixation","html-keyboard-response","482","783322","0.0-2.0-0.80","J.W.","2","pretest","true","3541361","null","","",""
"null","../img/tt/435tt.jpg","","mooney1","image-keyboard-response","483","786327","0.0-2.0-1.80","J.W.","2","pretest","true","3541361","null","../img/tt/435tt.jpg","",""
"322","<p></p>","","recognized","html-keyboard-response","484","786649","0.0-2.0-2.80","J.W.","2","pretest","true","3541361","78","../img/tt/435tt.jpg","n",""
"null","../img/gs/435gs.jpg","","solution","image-keyboard-response","485","788652","0.0-2.0-3.80","J.W.","2","pretest","true","3541361","null","","",""
"null","../img/tt/435tt.jpg","","mooney2","image-keyboard-response","486","790654","0.0-2.0-4.80","J.W.","2","pretest","true","3541361","null","","",""
"776","<p>How strong was your <strong>aha-experience</strong>?</p>","","aha","html-keyboard-response","487","791432","0.0-2.0-5.80","J.W.","2","pretest","true","3541361","53","../img/tt/435tt.jpg","","5"
"null","<div style=""font-size:60px;""> </div>","","fixation","html-keyboard-response","488","791634","0.0-2.0-0.81","J.W.","2","pretest","true","3541361","null","","",""
"null","../img/tt/479tt.jpg","","mooney1","image-keyboard-response","489","794637","0.0-2.0-1.81","J.W.","2","pretest","true","3541361","null","../img/tt/479tt.jpg","",""
"278","<p></p>","","recognized","html-keyboard-response","490","794916","0.0-2.0-2.81","J.W.","2","pretest","true","3541361","89","../img/tt/479tt.jpg","y",""
"null","../img/gs/479gs.jpg","","solution","image-keyboard-response","491","796920","0.0-2.0-3.81","J.W.","2","pretest","true","3541361","null","","",""
"null","../img/tt/479tt.jpg","","mooney2","image-keyboard-response","492","798922","0.0-2.0-4.81","J.W.","2","pretest","true","3541361","null","","",""
"452","<p>How strong was your <strong>aha-experience</strong>?</p>","","aha","html-keyboard-response","493","799376","0.0-2.0-5.81","J.W.","2","pretest","true","3541361","53","../img/tt/479tt.jpg","","5"
"null","<div style=""font-size:60px;""> </div>","","fixation","html-keyboard-response","494","799578","0.0-2.0-0.82","J.W.","2","pretest","true","3541361","null","","",""
"null","../img/tt/424tt.jpg","","mooney1","image-keyboard-response","495","802580","0.0-2.0-1.82","J.W.","2","pretest","true","3541361","null","../img/tt/424tt.jpg","",""
"433","<p></p>","","recognized","html-keyboard-response","496","803014","0.0-2.0-2.82","J.W.","2","pretest","true","3541361","78","../img/tt/424tt.jpg","n",""
"null","../img/gs/424gs.jpg","","solution","image-keyboard-response","497","805017","0.0-2.0-3.82","J.W.","2","pretest","true","3541361","null","","",""
"null","../img/tt/424tt.jpg","","mooney2","image-keyboard-response","498","807020","0.0-2.0-4.82","J.W.","2","pretest","true","3541361","null","","",""
"390","<p>How strong was your <strong>aha-experience</strong>?</p>","","aha","html-keyboard-response","499","807411","0.0-2.0-5.82","J.W.","2","pretest","true","3541361","49","../img/tt/424tt.jpg","","1"
"null","<div style=""font-size:60px;""> </div>","","fixation","html-keyboard-response","500","807614","0.0-2.0-0.83","J.W.","2","pretest","true","3541361","null","","",""
"null","../img/tt/598tt.jpg","","mooney1","image-keyboard-response","501","810617","0.0-2.0-1.83","J.W.","2","pretest","true","3541361","null","../img/tt/598tt.jpg","",""
"716","<p></p>","","recognized","html-keyboard-response","502","811334","0.0-2.0-2.83","J.W.","2","pretest","true","3541361","78","../img/tt/598tt.jpg","n",""
"null","../img/gs/598gs.jpg","","solution","image-keyboard-response","503","813338","0.0-2.0-3.83","J.W.","2","pretest","true","3541361","null","","",""
"null","../img/tt/598tt.jpg","","mooney2","image-keyboard-response","504","815343","0.0-2.0-4.83","J.W.","2","pretest","true","3541361","null","","",""
"402","<p>How strong was your <strong>aha-experience</strong>?</p>","","aha","html-keyboard-response","505","815747","0.0-2.0-5.83","J.W.","2","pretest","true","3541361","52","../img/tt/598tt.jpg","","4"
"null","<div style=""font-size:60px;""> </div>","","fixation","html-keyboard-response","506","815949","0.0-2.0-0.84","J.W.","2","pretest","true","3541361","null","","",""
"null","../img/tt/139tt.jpg","","mooney1","image-keyboard-response","507","818950","0.0-2.0-1.84","J.W.","2","pretest","true","3541361","null","../img/tt/139tt.jpg","",""
"328","<p></p>","","recognized","html-keyboard-response","508","819281","0.0-2.0-2.84","J.W.","2","pretest","true","3541361","89","../img/tt/139tt.jpg","y",""
"null","../img/gs/139gs.jpg","","solution","image-keyboard-response","509","821285","0.0-2.0-3.84","J.W.","2","pretest","true","3541361","null","","",""
"null","../img/tt/139tt.jpg","","mooney2","image-keyboard-response","510","823288","0.0-2.0-4.84","J.W.","2","pretest","true","3541361","null","","",""
"1755","<p>How strong was your <strong>aha-experience</strong>?</p>","","aha","html-keyboard-response","511","825044","0.0-2.0-5.84","J.W.","2","pretest","true","3541361","53","../img/tt/139tt.jpg","","5"
"null","<div style=""font-size:60px;""> </div>","","fixation","html-keyboard-response","512","825247","0.0-2.0-0.85","J.W.","2","pretest","true","3541361","null","","",""
"null","../img/tt/488tt.jpg","","mooney1","image-keyboard-response","513","828252","0.0-2.0-1.85","J.W.","2","pretest","true","3541361","null","../img/tt/488tt.jpg","",""
"927","<p></p>","","recognized","html-keyboard-response","514","829181","0.0-2.0-2.85","J.W.","2","pretest","true","3541361","78","../img/tt/488tt.jpg","n",""
"null","../img/gs/488gs.jpg","","solution","image-keyboard-response","515","831184","0.0-2.0-3.85","J.W.","2","pretest","true","3541361","null","","",""
"null","../img/tt/488tt.jpg","","mooney2","image-keyboard-response","516","833187","0.0-2.0-4.85","J.W.","2","pretest","true","3541361","null","","",""
"282","<p>How strong was your <strong>aha-experience</strong>?</p>","","aha","html-keyboard-response","517","833470","0.0-2.0-5.85","J.W.","2","pretest","true","3541361","49","../img/tt/488tt.jpg","","1"
"null","<div style=""font-size:60px;""> </div>","","fixation","html-keyboard-response","518","833672","0.0-2.0-0.86","J.W.","2","pretest","true","3541361","null","","",""
"null","../img/tt/430tt.jpg","","mooney1","image-keyboard-response","519","836675","0.0-2.0-1.86","J.W.","2","pretest","true","3541361","null","../img/tt/430tt.jpg","",""
"454","<p></p>","","recognized","html-keyboard-response","520","837130","0.0-2.0-2.86","J.W.","2","pretest","true","3541361","89","../img/tt/430tt.jpg","y",""
"null","../img/gs/430gs.jpg","","solution","image-keyboard-response","521","839134","0.0-2.0-3.86","J.W.","2","pretest","true","3541361","null","","",""
"null","../img/tt/430tt.jpg","","mooney2","image-keyboard-response","522","841137","0.0-2.0-4.86","J.W.","2","pretest","true","3541361","null","","",""
"445","<p>How strong was your <strong>aha-experience</strong>?</p>","","aha","html-keyboard-response","523","841584","0.0-2.0-5.86","J.W.","2","pretest","true","3541361","55","../img/tt/430tt.jpg","","7"
"null","<div style=""font-size:60px;""> </div>","","fixation","html-keyboard-response","524","841785","0.0-2.0-0.87","J.W.","2","pretest","true","3541361","null","","",""
"null","../img/tt/260tt.jpg","","mooney1","image-keyboard-response","525","844787","0.0-2.0-1.87","J.W.","2","pretest","true","3541361","null","../img/tt/260tt.jpg","",""
"447","<p></p>","","recognized","html-keyboard-response","526","845235","0.0-2.0-2.87","J.W.","2","pretest","true","3541361","78","../img/tt/260tt.jpg","n",""
"null","../img/gs/260gs.jpg","","solution","image-keyboard-response","527","847239","0.0-2.0-3.87","J.W.","2","pretest","true","3541361","null","","",""
"null","../img/tt/260tt.jpg","","mooney2","image-keyboard-response","528","849241","0.0-2.0-4.87","J.W.","2","pretest","true","3541361","null","","",""
"373","<p>How strong was your <strong>aha-experience</strong>?</p>","","aha","html-keyboard-response","529","849617","0.0-2.0-5.87","J.W.","2","pretest","true","3541361","49","../img/tt/260tt.jpg","","1"
"null","<div style=""font-size:60px;""> </div>","","fixation","html-keyboard-response","530","849818","0.0-2.0-0.88","J.W.","2","pretest","true","3541361","null","","",""
"null","../img/tt/1331tt.jpg","","mooney1","image-keyboard-response","531","852822","0.0-2.0-1.88","J.W.","2","pretest","true","3541361","null","../img/tt/1331tt.jpg","",""
"592","<p></p>","","recognized","html-keyboard-response","532","853416","0.0-2.0-2.88","J.W.","2","pretest","true","3541361","89","../img/tt/1331tt.jpg","y",""
"null","../img/gs/1331gs.jpg","","solution","image-keyboard-response","533","855421","0.0-2.0-3.88","J.W.","2","pretest","true","3541361","null","","",""
"null","../img/tt/1331tt.jpg","","mooney2","image-keyboard-response","534","857423","0.0-2.0-4.88","J.W.","2","pretest","true","3541361","null","","",""
"422","<p>How strong was your <strong>aha-experience</strong>?</p>","","aha","html-keyboard-response","535","857847","0.0-2.0-5.88","J.W.","2","pretest","true","3541361","53","../img/tt/1331tt.jpg","","5"
"null","<div style=""font-size:60px;""> </div>","","fixation","html-keyboard-response","536","858050","0.0-2.0-0.89","J.W.","2","pretest","true","3541361","null","","",""
"null","../img/tt/527tt.jpg","","mooney1","image-keyboard-response","537","861052","0.0-2.0-1.89","J.W.","2","pretest","true","3541361","null","../img/tt/527tt.jpg","",""
"895","<p></p>","","recognized","html-keyboard-response","538","861948","0.0-2.0-2.89","J.W.","2","pretest","true","3541361","89","../img/tt/527tt.jpg","y",""
"null","../img/gs/527gs.jpg","","solution","image-keyboard-response","539","863951","0.0-2.0-3.89","J.W.","2","pretest","true","3541361","null","","",""
"null","../img/tt/527tt.jpg","","mooney2","image-keyboard-response","540","865953","0.0-2.0-4.89","J.W.","2","pretest","true","3541361","null","","",""
"487","<p>How strong was your <strong>aha-experience</strong>?</p>","","aha","html-keyboard-response","541","866442","0.0-2.0-5.89","J.W.","2","pretest","true","3541361","54","../img/tt/527tt.jpg","","6"
"null","<div style=""font-size:60px;""> </div>","","fixation","html-keyboard-response","542","866644","0.0-2.0-0.90","J.W.","2","pretest","true","3541361","null","","",""
"null","../img/tt/425tt.jpg","","mooney1","image-keyboard-response","543","869647","0.0-2.0-1.90","J.W.","2","pretest","true","3541361","null","../img/tt/425tt.jpg","",""
"322","<p></p>","","recognized","html-keyboard-response","544","869970","0.0-2.0-2.90","J.W.","2","pretest","true","3541361","89","../img/tt/425tt.jpg","y",""
"null","../img/gs/425gs.jpg","","solution","image-keyboard-response","545","871973","0.0-2.0-3.90","J.W.","2","pretest","true","3541361","null","","",""
"null","../img/tt/425tt.jpg","","mooney2","image-keyboard-response","546","873976","0.0-2.0-4.90","J.W.","2","pretest","true","3541361","null","","",""
"303","<p>How strong was your <strong>aha-experience</strong>?</p>","","aha","html-keyboard-response","547","874280","0.0-2.0-5.90","J.W.","2","pretest","true","3541361","53","../img/tt/425tt.jpg","","5"
"null","<div style=""font-size:60px;""> </div>","","fixation","html-keyboard-response","548","874483","0.0-2.0-0.91","J.W.","2","pretest","true","3541361","null","","",""
"null","../img/tt/1336tt.jpg","","mooney1","image-keyboard-response","549","877485","0.0-2.0-1.91","J.W.","2","pretest","true","3541361","null","../img/tt/1336tt.jpg","",""
"1210","<p></p>","","recognized","html-keyboard-response","550","878696","0.0-2.0-2.91","J.W.","2","pretest","true","3541361","89","../img/tt/1336tt.jpg","y",""
"null","../img/gs/1336gs.jpg","","solution","image-keyboard-response","551","880699","0.0-2.0-3.91","J.W.","2","pretest","true","3541361","null","","",""
"null","../img/tt/1336tt.jpg","","mooney2","image-keyboard-response","552","882702","0.0-2.0-4.91","J.W.","2","pretest","true","3541361","null","","",""
"791","<p>How strong was your <strong>aha-experience</strong>?</p>","","aha","html-keyboard-response","553","883495","0.0-2.0-5.91","J.W.","2","pretest","true","3541361","52","../img/tt/1336tt.jpg","","4"
"null","<div style=""font-size:60px;""> </div>","","fixation","html-keyboard-response","554","883699","0.0-2.0-0.92","J.W.","2","pretest","true","3541361","null","","",""
"null","../img/tt/387tt.jpg","","mooney1","image-keyboard-response","555","886702","0.0-2.0-1.92","J.W.","2","pretest","true","3541361","null","../img/tt/387tt.jpg","",""
"301","<p></p>","","recognized","html-keyboard-response","556","887005","0.0-2.0-2.92","J.W.","2","pretest","true","3541361","78","../img/tt/387tt.jpg","n",""
"null","../img/gs/387gs.jpg","","solution","image-keyboard-response","557","889008","0.0-2.0-3.92","J.W.","2","pretest","true","3541361","null","","",""
"null","../img/tt/387tt.jpg","","mooney2","image-keyboard-response","558","891010","0.0-2.0-4.92","J.W.","2","pretest","true","3541361","null","","",""
"366","<p>How strong was your <strong>aha-experience</strong>?</p>","","aha","html-keyboard-response","559","891378","0.0-2.0-5.92","J.W.","2","pretest","true","3541361","49","../img/tt/387tt.jpg","","1"
"null","<div style=""font-size:60px;""> </div>","","fixation","html-keyboard-response","560","891579","0.0-2.0-0.93","J.W.","2","pretest","true","3541361","null","","",""
"null","../img/tt/244tt.jpg","","mooney1","image-keyboard-response","561","894582","0.0-2.0-1.93","J.W.","2","pretest","true","3541361","null","../img/tt/244tt.jpg","",""
"474","<p></p>","","recognized","html-keyboard-response","562","895056","0.0-2.0-2.93","J.W.","2","pretest","true","3541361","78","../img/tt/244tt.jpg","n",""
"null","../img/gs/244gs.jpg","","solution","image-keyboard-response","563","897060","0.0-2.0-3.93","J.W.","2","pretest","true","3541361","null","","",""
"null","../img/tt/244tt.jpg","","mooney2","image-keyboard-response","564","899062","0.0-2.0-4.93","J.W.","2","pretest","true","3541361","null","","",""
