"rt","stimulus","button_pressed","test_part","trial_type","trial_index","time_elapsed","internal_node_id","subject","session","experiment_name","complete","totalTime","key_press","currentStim","recognized","aha"
"62960","<div style='word-wrap: break-word; width: 900px'><h3>Please consider this information carefully before deciding whether to participate in this research</h3><ul style='text-align: left; font-size: .8em;'><li><b>Purpose of the research</b>: To examine how people process images.</li><li><b>What you will do in this research</b>:  Stimuli (images) will be presented on the computer and you will be asked different questions about them.</li><li><b>Time required</b>: Participation will take max 60 minutes to complete.</li><li><b>Risks</b>:  There are no anticipated risks associated with participating in this study. The effects of participating should be comparable to those you would experience from viewing a computer monitor for 60 minutes and using a mouse or keyboard.</li><li><b>Benefits</b>:  This study provides no benefits to you individually. The study provides important information about the nature of perception and learning.</li><li><b>Confidentiality</b>:  Your participation in this study will remain confidential. No personally identifiable information will be associated with your data. Your de-identified data may be shared with other researchers and used in future projects.</li><li><b>Participation and withdrawal</b>:  Your participation in this study is completely voluntary and you may refuse to participate or you may choose to withdraw at any time without penalty.</li><li><b>How to contact the researchers</b>: If you have questions or concerns about your participation or payment, or want to request a summary of research findings, please contact Sander Van de Cruys (KU Leuven), at sander.vandecruys@kuleuven.be.</li></ul><p>The nature and purpose of this research have been sufficiently explained and I agree to participate in this study.  I understand that I am free to withdraw at any time without incurring any penalty.</p><p>Please consent by clicking the button below to continue. Otherwise, please exit the study at this time.</p></div>","0","instructions","html-button-response","0","62963","0.0-0.0","NVH","1","pretest","true","3715810","","","",""
"113592","<div style='word-wrap: break-word; width: 900px'><h3>Instructions</h3><p>In this experiment you will see a series of distorted images like the one below on the left. As you can see in the righthand image, the distorted images are derived from actual photographs.In what follows, you will <strong>briefly</strong> be presented with <strong>only</strong> the distorted image.</p> <div style='float: left; margin-right: 20px;'><img src='../img/018tt.jpg' height='250' width='250'></img></div><div style='float: right; margin-left: 20px;'><img src='../img/018gs.jpg' height='250' width='250'></img></div><p>To be useful for future research, we need to select those images that people can generally not solve on their own. Therefore we'll show you the distorted image and ask you to indicate (yes or no) whether you already recognized what was in the image. This is not a competition, so please respond truthfully. We don't ask or check your answer, we just want to know whether you think you recognized it. All images depict objects from one of these broad level categories: animals, inanimate objects, plants, sports, vehicles, and food. Recognizing means knowing more than these broad labels for a given image. It means knowing at least the basic level category of the main object in the image, for example when you see a parrot in the image, 'parrot' will obviously be a correct answer but also correct is 'bird', but not 'animal' (the broad level category). For the example above, 'rose' would be correct or 'flower', but not 'plant'. When soccer players are depicted, you don't recognize the image when you just see 'humans', 'outdoors', or 'sports'. Note that complete certainty about your answer is not necessary, it's enough to have a good, definite guess on the object, to say 'yes, I recognized it'.</p><p>One additional question will be asked after we've revealed the solution: You'll be asked to indicate how strong your <strong>aha-experience</strong> was. This describes the positive 'click' you sometimes experience, when the pieces of the 'puzzle' fall together and you suddenly have 'insight' in the image. It describes how good you felt the 'fit' was between the distorted image and the solution.</p><p>Press any key to start.</p></div>","","instructions","html-keyboard-response","1","176558","0.0-1.0","NVH","1","pretest","true","3715810","32","","",""
"null","<div style=""font-size:60px;""> </div>","","fixation","html-keyboard-response","2","176760","0.0-2.0-0.0","NVH","1","pretest","true","3715810","null","","",""
"null","../img/tt/1159tt.jpg","","mooney1","image-keyboard-response","3","179765","0.0-2.0-1.0","NVH","1","pretest","true","3715810","null","../img/tt/1159tt.jpg","",""
"4820","<p></p>","","recognized","html-keyboard-response","4","184587","0.0-2.0-2.0","NVH","1","pretest","true","3715810","78","../img/tt/1159tt.jpg","n",""
"null","../img/gs/1159gs.jpg","","solution","image-keyboard-response","5","186590","0.0-2.0-3.0","NVH","1","pretest","true","3715810","null","","",""
"null","../img/tt/1159tt.jpg","","mooney2","image-keyboard-response","6","188592","0.0-2.0-4.0","NVH","1","pretest","true","3715810","null","","",""
"18631","<p>How strong was your <strong>aha-experience</strong>?</p>","","aha","html-keyboard-response","7","207225","0.0-2.0-5.0","NVH","1","pretest","true","3715810","52","../img/tt/1159tt.jpg","","4"
"null","<div style=""font-size:60px;""> </div>","","fixation","html-keyboard-response","8","207429","0.0-2.0-0.1","NVH","1","pretest","true","3715810","null","","",""
"null","../img/tt/1043tt.jpg","","mooney1","image-keyboard-response","9","210433","0.0-2.0-1.1","NVH","1","pretest","true","3715810","null","../img/tt/1043tt.jpg","",""
"1341","<p></p>","","recognized","html-keyboard-response","10","211775","0.0-2.0-2.1","NVH","1","pretest","true","3715810","78","../img/tt/1043tt.jpg","n",""
"null","../img/gs/1043gs.jpg","","solution","image-keyboard-response","11","213777","0.0-2.0-3.1","NVH","1","pretest","true","3715810","null","","",""
"null","../img/tt/1043tt.jpg","","mooney2","image-keyboard-response","12","215780","0.0-2.0-4.1","NVH","1","pretest","true","3715810","null","","",""
"8151","<p>How strong was your <strong>aha-experience</strong>?</p>","","aha","html-keyboard-response","13","223934","0.0-2.0-5.1","NVH","1","pretest","true","3715810","52","../img/tt/1043tt.jpg","","4"
"null","<div style=""font-size:60px;""> </div>","","fixation","html-keyboard-response","14","224137","0.0-2.0-0.2","NVH","1","pretest","true","3715810","null","","",""
"null","../img/tt/1205tt.jpg","","mooney1","image-keyboard-response","15","227140","0.0-2.0-1.2","NVH","1","pretest","true","3715810","null","../img/tt/1205tt.jpg","",""
"645","<p></p>","","recognized","html-keyboard-response","16","227788","0.0-2.0-2.2","NVH","1","pretest","true","3715810","78","../img/tt/1205tt.jpg","n",""
"null","../img/gs/1205gs.jpg","","solution","image-keyboard-response","17","229790","0.0-2.0-3.2","NVH","1","pretest","true","3715810","null","","",""
"null","../img/tt/1205tt.jpg","","mooney2","image-keyboard-response","18","231794","0.0-2.0-4.2","NVH","1","pretest","true","3715810","null","","",""
"6217","<p>How strong was your <strong>aha-experience</strong>?</p>","","aha","html-keyboard-response","19","238013","0.0-2.0-5.2","NVH","1","pretest","true","3715810","50","../img/tt/1205tt.jpg","","2"
"null","<div style=""font-size:60px;""> </div>","","fixation","html-keyboard-response","20","238215","0.0-2.0-0.3","NVH","1","pretest","true","3715810","null","","",""
"null","../img/tt/1141tt.jpg","","mooney1","image-keyboard-response","21","241218","0.0-2.0-1.3","NVH","1","pretest","true","3715810","null","../img/tt/1141tt.jpg","",""
"829","<p></p>","","recognized","html-keyboard-response","22","242049","0.0-2.0-2.3","NVH","1","pretest","true","3715810","89","../img/tt/1141tt.jpg","y",""
"null","../img/gs/1141gs.jpg","","solution","image-keyboard-response","23","244052","0.0-2.0-3.3","NVH","1","pretest","true","3715810","null","","",""
"null","../img/tt/1141tt.jpg","","mooney2","image-keyboard-response","24","246055","0.0-2.0-4.3","NVH","1","pretest","true","3715810","null","","",""
"5499","<p>How strong was your <strong>aha-experience</strong>?</p>","","aha","html-keyboard-response","25","251557","0.0-2.0-5.3","NVH","1","pretest","true","3715810","49","../img/tt/1141tt.jpg","","1"
"null","<div style=""font-size:60px;""> </div>","","fixation","html-keyboard-response","26","251758","0.0-2.0-0.4","NVH","1","pretest","true","3715810","null","","",""
"null","../img/tt/1264tt.jpg","","mooney1","image-keyboard-response","27","254762","0.0-2.0-1.4","NVH","1","pretest","true","3715810","null","../img/tt/1264tt.jpg","",""
"833","<p></p>","","recognized","html-keyboard-response","28","255596","0.0-2.0-2.4","NVH","1","pretest","true","3715810","89","../img/tt/1264tt.jpg","y",""
"null","../img/gs/1264gs.jpg","","solution","image-keyboard-response","29","257600","0.0-2.0-3.4","NVH","1","pretest","true","3715810","null","","",""
"null","../img/tt/1264tt.jpg","","mooney2","image-keyboard-response","30","259602","0.0-2.0-4.4","NVH","1","pretest","true","3715810","null","","",""
"3307","<p>How strong was your <strong>aha-experience</strong>?</p>","","aha","html-keyboard-response","31","262911","0.0-2.0-5.4","NVH","1","pretest","true","3715810","49","../img/tt/1264tt.jpg","","1"
"null","<div style=""font-size:60px;""> </div>","","fixation","html-keyboard-response","32","263113","0.0-2.0-0.5","NVH","1","pretest","true","3715810","null","","",""
"null","../img/tt/065tt.jpg","","mooney1","image-keyboard-response","33","266115","0.0-2.0-1.5","NVH","1","pretest","true","3715810","null","../img/tt/065tt.jpg","",""
"1136","<p></p>","","recognized","html-keyboard-response","34","267252","0.0-2.0-2.5","NVH","1","pretest","true","3715810","78","../img/tt/065tt.jpg","n",""
"null","../img/gs/065gs.jpg","","solution","image-keyboard-response","35","269255","0.0-2.0-3.5","NVH","1","pretest","true","3715810","null","","",""
"null","../img/tt/065tt.jpg","","mooney2","image-keyboard-response","36","271258","0.0-2.0-4.5","NVH","1","pretest","true","3715810","null","","",""
"2087","<p>How strong was your <strong>aha-experience</strong>?</p>","","aha","html-keyboard-response","37","273347","0.0-2.0-5.5","NVH","1","pretest","true","3715810","53","../img/tt/065tt.jpg","","5"
"null","<div style=""font-size:60px;""> </div>","","fixation","html-keyboard-response","38","273548","0.0-2.0-0.6","NVH","1","pretest","true","3715810","null","","",""
"null","../img/tt/085tt.jpg","","mooney1","image-keyboard-response","39","276552","0.0-2.0-1.6","NVH","1","pretest","true","3715810","null","../img/tt/085tt.jpg","",""
"1261","<p></p>","","recognized","html-keyboard-response","40","277814","0.0-2.0-2.6","NVH","1","pretest","true","3715810","89","../img/tt/085tt.jpg","y",""
"null","../img/gs/085gs.jpg","","solution","image-keyboard-response","41","279818","0.0-2.0-3.6","NVH","1","pretest","true","3715810","null","","",""
"null","../img/tt/085tt.jpg","","mooney2","image-keyboard-response","42","281821","0.0-2.0-4.6","NVH","1","pretest","true","3715810","null","","",""
"21496","<p>How strong was your <strong>aha-experience</strong>?</p>","","aha","html-keyboard-response","43","303318","0.0-2.0-5.6","NVH","1","pretest","true","3715810","50","../img/tt/085tt.jpg","","2"
"null","<div style=""font-size:60px;""> </div>","","fixation","html-keyboard-response","44","303520","0.0-2.0-0.7","NVH","1","pretest","true","3715810","null","","",""
"null","../img/tt/1144tt.jpg","","mooney1","image-keyboard-response","45","306523","0.0-2.0-1.7","NVH","1","pretest","true","3715810","null","../img/tt/1144tt.jpg","",""
"1352","<p></p>","","recognized","html-keyboard-response","46","307877","0.0-2.0-2.7","NVH","1","pretest","true","3715810","89","../img/tt/1144tt.jpg","y",""
"null","../img/gs/1144gs.jpg","","solution","image-keyboard-response","47","309881","0.0-2.0-3.7","NVH","1","pretest","true","3715810","null","","",""
"null","../img/tt/1144tt.jpg","","mooney2","image-keyboard-response","48","311883","0.0-2.0-4.7","NVH","1","pretest","true","3715810","null","","",""
"878","<p>How strong was your <strong>aha-experience</strong>?</p>","","aha","html-keyboard-response","49","312763","0.0-2.0-5.7","NVH","1","pretest","true","3715810","50","../img/tt/1144tt.jpg","","2"
"null","<div style=""font-size:60px;""> </div>","","fixation","html-keyboard-response","50","312964","0.0-2.0-0.8","NVH","1","pretest","true","3715810","null","","",""
"null","../img/tt/052tt.jpg","","mooney1","image-keyboard-response","51","315967","0.0-2.0-1.8","NVH","1","pretest","true","3715810","null","../img/tt/052tt.jpg","",""
"1013","<p></p>","","recognized","html-keyboard-response","52","316981","0.0-2.0-2.8","NVH","1","pretest","true","3715810","89","../img/tt/052tt.jpg","y",""
"null","../img/gs/052gs.jpg","","solution","image-keyboard-response","53","318984","0.0-2.0-3.8","NVH","1","pretest","true","3715810","null","","",""
"null","../img/tt/052tt.jpg","","mooney2","image-keyboard-response","54","320987","0.0-2.0-4.8","NVH","1","pretest","true","3715810","null","","",""
"2589","<p>How strong was your <strong>aha-experience</strong>?</p>","","aha","html-keyboard-response","55","323578","0.0-2.0-5.8","NVH","1","pretest","true","3715810","50","../img/tt/052tt.jpg","","2"
"null","<div style=""font-size:60px;""> </div>","","fixation","html-keyboard-response","56","323779","0.0-2.0-0.9","NVH","1","pretest","true","3715810","null","","",""
"null","../img/tt/1088tt.jpg","","mooney1","image-keyboard-response","57","326782","0.0-2.0-1.9","NVH","1","pretest","true","3715810","null","../img/tt/1088tt.jpg","",""
"377","<p></p>","","recognized","html-keyboard-response","58","327161","0.0-2.0-2.9","NVH","1","pretest","true","3715810","89","../img/tt/1088tt.jpg","y",""
"null","../img/gs/1088gs.jpg","","solution","image-keyboard-response","59","329163","0.0-2.0-3.9","NVH","1","pretest","true","3715810","null","","",""
"null","../img/tt/1088tt.jpg","","mooney2","image-keyboard-response","60","331166","0.0-2.0-4.9","NVH","1","pretest","true","3715810","null","","",""
"317","<p>How strong was your <strong>aha-experience</strong>?</p>","","aha","html-keyboard-response","61","331485","0.0-2.0-5.9","NVH","1","pretest","true","3715810","49","../img/tt/1088tt.jpg","","1"
"null","<div style=""font-size:60px;""> </div>","","fixation","html-keyboard-response","62","331688","0.0-2.0-0.10","NVH","1","pretest","true","3715810","null","","",""
"null","../img/tt/1265tt.jpg","","mooney1","image-keyboard-response","63","334692","0.0-2.0-1.10","NVH","1","pretest","true","3715810","null","../img/tt/1265tt.jpg","",""
"1611","<p></p>","","recognized","html-keyboard-response","64","336304","0.0-2.0-2.10","NVH","1","pretest","true","3715810","78","../img/tt/1265tt.jpg","n",""
"null","../img/gs/1265gs.jpg","","solution","image-keyboard-response","65","338308","0.0-2.0-3.10","NVH","1","pretest","true","3715810","null","","",""
"null","../img/tt/1265tt.jpg","","mooney2","image-keyboard-response","66","340312","0.0-2.0-4.10","NVH","1","pretest","true","3715810","null","","",""
"1531","<p>How strong was your <strong>aha-experience</strong>?</p>","","aha","html-keyboard-response","67","341844","0.0-2.0-5.10","NVH","1","pretest","true","3715810","53","../img/tt/1265tt.jpg","","5"
"null","<div style=""font-size:60px;""> </div>","","fixation","html-keyboard-response","68","342046","0.0-2.0-0.11","NVH","1","pretest","true","3715810","null","","",""
"null","../img/tt/1063tt.jpg","","mooney1","image-keyboard-response","69","345054","0.0-2.0-1.11","NVH","1","pretest","true","3715810","null","../img/tt/1063tt.jpg","",""
"591","<p></p>","","recognized","html-keyboard-response","70","345646","0.0-2.0-2.11","NVH","1","pretest","true","3715810","78","../img/tt/1063tt.jpg","n",""
"null","../img/gs/1063gs.jpg","","solution","image-keyboard-response","71","347648","0.0-2.0-3.11","NVH","1","pretest","true","3715810","null","","",""
"null","../img/tt/1063tt.jpg","","mooney2","image-keyboard-response","72","349650","0.0-2.0-4.11","NVH","1","pretest","true","3715810","null","","",""
"2065","<p>How strong was your <strong>aha-experience</strong>?</p>","","aha","html-keyboard-response","73","351717","0.0-2.0-5.11","NVH","1","pretest","true","3715810","52","../img/tt/1063tt.jpg","","4"
"null","<div style=""font-size:60px;""> </div>","","fixation","html-keyboard-response","74","351919","0.0-2.0-0.12","NVH","1","pretest","true","3715810","null","","",""
"null","../img/tt/1023tt.jpg","","mooney1","image-keyboard-response","75","354923","0.0-2.0-1.12","NVH","1","pretest","true","3715810","null","../img/tt/1023tt.jpg","",""
"1501","<p></p>","","recognized","html-keyboard-response","76","356425","0.0-2.0-2.12","NVH","1","pretest","true","3715810","78","../img/tt/1023tt.jpg","n",""
"null","../img/gs/1023gs.jpg","","solution","image-keyboard-response","77","358428","0.0-2.0-3.12","NVH","1","pretest","true","3715810","null","","",""
"null","../img/tt/1023tt.jpg","","mooney2","image-keyboard-response","78","360430","0.0-2.0-4.12","NVH","1","pretest","true","3715810","null","","",""
"4205","<p>How strong was your <strong>aha-experience</strong>?</p>","","aha","html-keyboard-response","79","364637","0.0-2.0-5.12","NVH","1","pretest","true","3715810","53","../img/tt/1023tt.jpg","","5"
"null","<div style=""font-size:60px;""> </div>","","fixation","html-keyboard-response","80","364839","0.0-2.0-0.13","NVH","1","pretest","true","3715810","null","","",""
"null","../img/tt/1188tt.jpg","","mooney1","image-keyboard-response","81","367842","0.0-2.0-1.13","NVH","1","pretest","true","3715810","null","../img/tt/1188tt.jpg","",""
"1971","<p></p>","","recognized","html-keyboard-response","82","369815","0.0-2.0-2.13","NVH","1","pretest","true","3715810","78","../img/tt/1188tt.jpg","n",""
"null","../img/gs/1188gs.jpg","","solution","image-keyboard-response","83","371819","0.0-2.0-3.13","NVH","1","pretest","true","3715810","null","","",""
"null","../img/tt/1188tt.jpg","","mooney2","image-keyboard-response","84","373821","0.0-2.0-4.13","NVH","1","pretest","true","3715810","null","","",""
"1806","<p>How strong was your <strong>aha-experience</strong>?</p>","","aha","html-keyboard-response","85","375629","0.0-2.0-5.13","NVH","1","pretest","true","3715810","54","../img/tt/1188tt.jpg","","6"
"null","<div style=""font-size:60px;""> </div>","","fixation","html-keyboard-response","86","375831","0.0-2.0-0.14","NVH","1","pretest","true","3715810","null","","",""
"null","../img/tt/1263tt.jpg","","mooney1","image-keyboard-response","87","378833","0.0-2.0-1.14","NVH","1","pretest","true","3715810","null","../img/tt/1263tt.jpg","",""
"453","<p></p>","","recognized","html-keyboard-response","88","379288","0.0-2.0-2.14","NVH","1","pretest","true","3715810","89","../img/tt/1263tt.jpg","y",""
"null","../img/gs/1263gs.jpg","","solution","image-keyboard-response","89","381290","0.0-2.0-3.14","NVH","1","pretest","true","3715810","null","","",""
"null","../img/tt/1263tt.jpg","","mooney2","image-keyboard-response","90","383292","0.0-2.0-4.14","NVH","1","pretest","true","3715810","null","","",""
"2972","<p>How strong was your <strong>aha-experience</strong>?</p>","","aha","html-keyboard-response","91","386266","0.0-2.0-5.14","NVH","1","pretest","true","3715810","49","../img/tt/1263tt.jpg","","1"
"null","<div style=""font-size:60px;""> </div>","","fixation","html-keyboard-response","92","386467","0.0-2.0-0.15","NVH","1","pretest","true","3715810","null","","",""
"null","../img/tt/018tt.jpg","","mooney1","image-keyboard-response","93","389470","0.0-2.0-1.15","NVH","1","pretest","true","3715810","null","../img/tt/018tt.jpg","",""
"1259","<p></p>","","recognized","html-keyboard-response","94","390730","0.0-2.0-2.15","NVH","1","pretest","true","3715810","89","../img/tt/018tt.jpg","y",""
"null","../img/gs/018gs.jpg","","solution","image-keyboard-response","95","392733","0.0-2.0-3.15","NVH","1","pretest","true","3715810","null","","",""
"null","../img/tt/018tt.jpg","","mooney2","image-keyboard-response","96","394736","0.0-2.0-4.15","NVH","1","pretest","true","3715810","null","","",""
"2351","<p>How strong was your <strong>aha-experience</strong>?</p>","","aha","html-keyboard-response","97","397088","0.0-2.0-5.15","NVH","1","pretest","true","3715810","50","../img/tt/018tt.jpg","","2"
"null","<div style=""font-size:60px;""> </div>","","fixation","html-keyboard-response","98","397289","0.0-2.0-0.16","NVH","1","pretest","true","3715810","null","","",""
"null","../img/tt/1178tt.jpg","","mooney1","image-keyboard-response","99","400293","0.0-2.0-1.16","NVH","1","pretest","true","3715810","null","../img/tt/1178tt.jpg","",""
"1513","<p></p>","","recognized","html-keyboard-response","100","401808","0.0-2.0-2.16","NVH","1","pretest","true","3715810","89","../img/tt/1178tt.jpg","y",""
"null","../img/gs/1178gs.jpg","","solution","image-keyboard-response","101","403811","0.0-2.0-3.16","NVH","1","pretest","true","3715810","null","","",""
"null","../img/tt/1178tt.jpg","","mooney2","image-keyboard-response","102","405814","0.0-2.0-4.16","NVH","1","pretest","true","3715810","null","","",""
"1003","<p>How strong was your <strong>aha-experience</strong>?</p>","","aha","html-keyboard-response","103","406819","0.0-2.0-5.16","NVH","1","pretest","true","3715810","54","../img/tt/1178tt.jpg","","6"
"null","<div style=""font-size:60px;""> </div>","","fixation","html-keyboard-response","104","407020","0.0-2.0-0.17","NVH","1","pretest","true","3715810","null","","",""
"null","../img/tt/1251tt.jpg","","mooney1","image-keyboard-response","105","410023","0.0-2.0-1.17","NVH","1","pretest","true","3715810","null","../img/tt/1251tt.jpg","",""
"611","<p></p>","","recognized","html-keyboard-response","106","410634","0.0-2.0-2.17","NVH","1","pretest","true","3715810","78","../img/tt/1251tt.jpg","n",""
"null","../img/gs/1251gs.jpg","","solution","image-keyboard-response","107","412637","0.0-2.0-3.17","NVH","1","pretest","true","3715810","null","","",""
"null","../img/tt/1251tt.jpg","","mooney2","image-keyboard-response","108","414641","0.0-2.0-4.17","NVH","1","pretest","true","3715810","null","","",""
"3525","<p>How strong was your <strong>aha-experience</strong>?</p>","","aha","html-keyboard-response","109","418166","0.0-2.0-5.17","NVH","1","pretest","true","3715810","54","../img/tt/1251tt.jpg","","6"
"null","<div style=""font-size:60px;""> </div>","","fixation","html-keyboard-response","110","418367","0.0-2.0-0.18","NVH","1","pretest","true","3715810","null","","",""
"null","../img/tt/020tt.jpg","","mooney1","image-keyboard-response","111","421375","0.0-2.0-1.18","NVH","1","pretest","true","3715810","null","../img/tt/020tt.jpg","",""
"515","<p></p>","","recognized","html-keyboard-response","112","421891","0.0-2.0-2.18","NVH","1","pretest","true","3715810","78","../img/tt/020tt.jpg","n",""
"null","../img/gs/020gs.jpg","","solution","image-keyboard-response","113","423893","0.0-2.0-3.18","NVH","1","pretest","true","3715810","null","","",""
"null","../img/tt/020tt.jpg","","mooney2","image-keyboard-response","114","425896","0.0-2.0-4.18","NVH","1","pretest","true","3715810","null","","",""
"222","<p>How strong was your <strong>aha-experience</strong>?</p>","","aha","html-keyboard-response","115","426120","0.0-2.0-5.18","NVH","1","pretest","true","3715810","54","../img/tt/020tt.jpg","","6"
"null","<div style=""font-size:60px;""> </div>","","fixation","html-keyboard-response","116","426322","0.0-2.0-0.19","NVH","1","pretest","true","3715810","null","","",""
"null","../img/tt/1139tt.jpg","","mooney1","image-keyboard-response","117","429325","0.0-2.0-1.19","NVH","1","pretest","true","3715810","null","../img/tt/1139tt.jpg","",""
"458","<p></p>","","recognized","html-keyboard-response","118","429784","0.0-2.0-2.19","NVH","1","pretest","true","3715810","78","../img/tt/1139tt.jpg","n",""
"null","../img/gs/1139gs.jpg","","solution","image-keyboard-response","119","431786","0.0-2.0-3.19","NVH","1","pretest","true","3715810","null","","",""
"null","../img/tt/1139tt.jpg","","mooney2","image-keyboard-response","120","433790","0.0-2.0-4.19","NVH","1","pretest","true","3715810","null","","",""
"574","<p>How strong was your <strong>aha-experience</strong>?</p>","","aha","html-keyboard-response","121","434366","0.0-2.0-5.19","NVH","1","pretest","true","3715810","52","../img/tt/1139tt.jpg","","4"
"null","<div style=""font-size:60px;""> </div>","","fixation","html-keyboard-response","122","434567","0.0-2.0-0.20","NVH","1","pretest","true","3715810","null","","",""
"null","../img/tt/1105tt.jpg","","mooney1","image-keyboard-response","123","437569","0.0-2.0-1.20","NVH","1","pretest","true","3715810","null","../img/tt/1105tt.jpg","",""
"330","<p></p>","","recognized","html-keyboard-response","124","437900","0.0-2.0-2.20","NVH","1","pretest","true","3715810","89","../img/tt/1105tt.jpg","y",""
"null","../img/gs/1105gs.jpg","","solution","image-keyboard-response","125","439902","0.0-2.0-3.20","NVH","1","pretest","true","3715810","null","","",""
"null","../img/tt/1105tt.jpg","","mooney2","image-keyboard-response","126","441904","0.0-2.0-4.20","NVH","1","pretest","true","3715810","null","","",""
"350","<p>How strong was your <strong>aha-experience</strong>?</p>","","aha","html-keyboard-response","127","442257","0.0-2.0-5.20","NVH","1","pretest","true","3715810","50","../img/tt/1105tt.jpg","","2"
"null","<div style=""font-size:60px;""> </div>","","fixation","html-keyboard-response","128","442459","0.0-2.0-0.21","NVH","1","pretest","true","3715810","null","","",""
"null","../img/tt/1010tt.jpg","","mooney1","image-keyboard-response","129","445461","0.0-2.0-1.21","NVH","1","pretest","true","3715810","null","../img/tt/1010tt.jpg","",""
"261","<p></p>","","recognized","html-keyboard-response","130","445724","0.0-2.0-2.21","NVH","1","pretest","true","3715810","89","../img/tt/1010tt.jpg","y",""
"null","../img/gs/1010gs.jpg","","solution","image-keyboard-response","131","447726","0.0-2.0-3.21","NVH","1","pretest","true","3715810","null","","",""
"null","../img/tt/1010tt.jpg","","mooney2","image-keyboard-response","132","449730","0.0-2.0-4.21","NVH","1","pretest","true","3715810","null","","",""
"400","<p>How strong was your <strong>aha-experience</strong>?</p>","","aha","html-keyboard-response","133","450132","0.0-2.0-5.21","NVH","1","pretest","true","3715810","50","../img/tt/1010tt.jpg","","2"
"null","<div style=""font-size:60px;""> </div>","","fixation","html-keyboard-response","134","450335","0.0-2.0-0.22","NVH","1","pretest","true","3715810","null","","",""
"null","../img/tt/1056tt.jpg","","mooney1","image-keyboard-response","135","453337","0.0-2.0-1.22","NVH","1","pretest","true","3715810","null","../img/tt/1056tt.jpg","",""
"297","<p></p>","","recognized","html-keyboard-response","136","453635","0.0-2.0-2.22","NVH","1","pretest","true","3715810","89","../img/tt/1056tt.jpg","y",""
"null","../img/gs/1056gs.jpg","","solution","image-keyboard-response","137","455638","0.0-2.0-3.22","NVH","1","pretest","true","3715810","null","","",""
"null","../img/tt/1056tt.jpg","","mooney2","image-keyboard-response","138","457640","0.0-2.0-4.22","NVH","1","pretest","true","3715810","null","","",""
"1365","<p>How strong was your <strong>aha-experience</strong>?</p>","","aha","html-keyboard-response","139","459007","0.0-2.0-5.22","NVH","1","pretest","true","3715810","50","../img/tt/1056tt.jpg","","2"
"null","<div style=""font-size:60px;""> </div>","","fixation","html-keyboard-response","140","459210","0.0-2.0-0.23","NVH","1","pretest","true","3715810","null","","",""
"null","../img/tt/123tt.jpg","","mooney1","image-keyboard-response","141","462212","0.0-2.0-1.23","NVH","1","pretest","true","3715810","null","../img/tt/123tt.jpg","",""
"2153","<p></p>","","recognized","html-keyboard-response","142","464367","0.0-2.0-2.23","NVH","1","pretest","true","3715810","78","../img/tt/123tt.jpg","n",""
"null","../img/gs/123gs.jpg","","solution","image-keyboard-response","143","466371","0.0-2.0-3.23","NVH","1","pretest","true","3715810","null","","",""
"null","../img/tt/123tt.jpg","","mooney2","image-keyboard-response","144","468374","0.0-2.0-4.23","NVH","1","pretest","true","3715810","null","","",""
"396","<p>How strong was your <strong>aha-experience</strong>?</p>","","aha","html-keyboard-response","145","468771","0.0-2.0-5.23","NVH","1","pretest","true","3715810","53","../img/tt/123tt.jpg","","5"
"null","<div style=""font-size:60px;""> </div>","","fixation","html-keyboard-response","146","468973","0.0-2.0-0.24","NVH","1","pretest","true","3715810","null","","",""
"null","../img/tt/1259tt.jpg","","mooney1","image-keyboard-response","147","471976","0.0-2.0-1.24","NVH","1","pretest","true","3715810","null","../img/tt/1259tt.jpg","",""
"915","<p></p>","","recognized","html-keyboard-response","148","472892","0.0-2.0-2.24","NVH","1","pretest","true","3715810","78","../img/tt/1259tt.jpg","n",""
"null","../img/gs/1259gs.jpg","","solution","image-keyboard-response","149","474896","0.0-2.0-3.24","NVH","1","pretest","true","3715810","null","","",""
"null","../img/tt/1259tt.jpg","","mooney2","image-keyboard-response","150","476899","0.0-2.0-4.24","NVH","1","pretest","true","3715810","null","","",""
"393","<p>How strong was your <strong>aha-experience</strong>?</p>","","aha","html-keyboard-response","151","477294","0.0-2.0-5.24","NVH","1","pretest","true","3715810","53","../img/tt/1259tt.jpg","","5"
"null","<div style=""font-size:60px;""> </div>","","fixation","html-keyboard-response","152","477496","0.0-2.0-0.25","NVH","1","pretest","true","3715810","null","","",""
"null","../img/tt/1055tt.jpg","","mooney1","image-keyboard-response","153","480502","0.0-2.0-1.25","NVH","1","pretest","true","3715810","null","../img/tt/1055tt.jpg","",""
"280","<p></p>","","recognized","html-keyboard-response","154","480784","0.0-2.0-2.25","NVH","1","pretest","true","3715810","78","../img/tt/1055tt.jpg","n",""
"null","../img/gs/1055gs.jpg","","solution","image-keyboard-response","155","482786","0.0-2.0-3.25","NVH","1","pretest","true","3715810","null","","",""
"null","../img/tt/1055tt.jpg","","mooney2","image-keyboard-response","156","484789","0.0-2.0-4.25","NVH","1","pretest","true","3715810","null","","",""
"2881","<p>How strong was your <strong>aha-experience</strong>?</p>","","aha","html-keyboard-response","157","487671","0.0-2.0-5.25","NVH","1","pretest","true","3715810","51","../img/tt/1055tt.jpg","","3"
"null","<div style=""font-size:60px;""> </div>","","fixation","html-keyboard-response","158","487872","0.0-2.0-0.26","NVH","1","pretest","true","3715810","null","","",""
"null","../img/tt/1127tt.jpg","","mooney1","image-keyboard-response","159","490876","0.0-2.0-1.26","NVH","1","pretest","true","3715810","null","../img/tt/1127tt.jpg","",""
"657","<p></p>","","recognized","html-keyboard-response","160","491534","0.0-2.0-2.26","NVH","1","pretest","true","3715810","78","../img/tt/1127tt.jpg","n",""
"null","../img/gs/1127gs.jpg","","solution","image-keyboard-response","161","493537","0.0-2.0-3.26","NVH","1","pretest","true","3715810","null","","",""
"null","../img/tt/1127tt.jpg","","mooney2","image-keyboard-response","162","495539","0.0-2.0-4.26","NVH","1","pretest","true","3715810","null","","",""
"1171","<p>How strong was your <strong>aha-experience</strong>?</p>","","aha","html-keyboard-response","163","496711","0.0-2.0-5.26","NVH","1","pretest","true","3715810","53","../img/tt/1127tt.jpg","","5"
"null","<div style=""font-size:60px;""> </div>","","fixation","html-keyboard-response","164","496912","0.0-2.0-0.27","NVH","1","pretest","true","3715810","null","","",""
"null","../img/tt/1288tt.jpg","","mooney1","image-keyboard-response","165","499915","0.0-2.0-1.27","NVH","1","pretest","true","3715810","null","../img/tt/1288tt.jpg","",""
"823","<p></p>","","recognized","html-keyboard-response","166","500740","0.0-2.0-2.27","NVH","1","pretest","true","3715810","89","../img/tt/1288tt.jpg","y",""
"null","../img/gs/1288gs.jpg","","solution","image-keyboard-response","167","502743","0.0-2.0-3.27","NVH","1","pretest","true","3715810","null","","",""
"null","../img/tt/1288tt.jpg","","mooney2","image-keyboard-response","168","504746","0.0-2.0-4.27","NVH","1","pretest","true","3715810","null","","",""
"438","<p>How strong was your <strong>aha-experience</strong>?</p>","","aha","html-keyboard-response","169","505186","0.0-2.0-5.27","NVH","1","pretest","true","3715810","50","../img/tt/1288tt.jpg","","2"
"null","<div style=""font-size:60px;""> </div>","","fixation","html-keyboard-response","170","505388","0.0-2.0-0.28","NVH","1","pretest","true","3715810","null","","",""
"null","../img/tt/119tt.jpg","","mooney1","image-keyboard-response","171","508391","0.0-2.0-1.28","NVH","1","pretest","true","3715810","null","../img/tt/119tt.jpg","",""
"2296","<p></p>","","recognized","html-keyboard-response","172","510688","0.0-2.0-2.28","NVH","1","pretest","true","3715810","89","../img/tt/119tt.jpg","y",""
"null","../img/gs/119gs.jpg","","solution","image-keyboard-response","173","512692","0.0-2.0-3.28","NVH","1","pretest","true","3715810","null","","",""
"null","../img/tt/119tt.jpg","","mooney2","image-keyboard-response","174","514695","0.0-2.0-4.28","NVH","1","pretest","true","3715810","null","","",""
"257","<p>How strong was your <strong>aha-experience</strong>?</p>","","aha","html-keyboard-response","175","514953","0.0-2.0-5.28","NVH","1","pretest","true","3715810","54","../img/tt/119tt.jpg","","6"
"null","<div style=""font-size:60px;""> </div>","","fixation","html-keyboard-response","176","515155","0.0-2.0-0.29","NVH","1","pretest","true","3715810","null","","",""
"null","../img/tt/1266tt.jpg","","mooney1","image-keyboard-response","177","518159","0.0-2.0-1.29","NVH","1","pretest","true","3715810","null","../img/tt/1266tt.jpg","",""
"3980","<p></p>","","recognized","html-keyboard-response","178","522140","0.0-2.0-2.29","NVH","1","pretest","true","3715810","89","../img/tt/1266tt.jpg","y",""
"null","../img/gs/1266gs.jpg","","solution","image-keyboard-response","179","524143","0.0-2.0-3.29","NVH","1","pretest","true","3715810","null","","",""
"null","../img/tt/1266tt.jpg","","mooney2","image-keyboard-response","180","526146","0.0-2.0-4.29","NVH","1","pretest","true","3715810","null","","",""
"1540","<p>How strong was your <strong>aha-experience</strong>?</p>","","aha","html-keyboard-response","181","527688","0.0-2.0-5.29","NVH","1","pretest","true","3715810","51","../img/tt/1266tt.jpg","","3"
"null","<div style=""font-size:60px;""> </div>","","fixation","html-keyboard-response","182","527890","0.0-2.0-0.30","NVH","1","pretest","true","3715810","null","","",""
"null","../img/tt/1202tt.jpg","","mooney1","image-keyboard-response","183","530892","0.0-2.0-1.30","NVH","1","pretest","true","3715810","null","../img/tt/1202tt.jpg","",""
"425","<p></p>","","recognized","html-keyboard-response","184","531319","0.0-2.0-2.30","NVH","1","pretest","true","3715810","78","../img/tt/1202tt.jpg","n",""
"null","../img/gs/1202gs.jpg","","solution","image-keyboard-response","185","533321","0.0-2.0-3.30","NVH","1","pretest","true","3715810","null","","",""
"null","../img/tt/1202tt.jpg","","mooney2","image-keyboard-response","186","535324","0.0-2.0-4.30","NVH","1","pretest","true","3715810","null","","",""
"3489","<p>How strong was your <strong>aha-experience</strong>?</p>","","aha","html-keyboard-response","187","538815","0.0-2.0-5.30","NVH","1","pretest","true","3715810","51","../img/tt/1202tt.jpg","","3"
"null","<div style=""font-size:60px;""> </div>","","fixation","html-keyboard-response","188","539016","0.0-2.0-0.31","NVH","1","pretest","true","3715810","null","","",""
"null","../img/tt/1227tt.jpg","","mooney1","image-keyboard-response","189","542019","0.0-2.0-1.31","NVH","1","pretest","true","3715810","null","../img/tt/1227tt.jpg","",""
"421","<p></p>","","recognized","html-keyboard-response","190","542443","0.0-2.0-2.31","NVH","1","pretest","true","3715810","78","../img/tt/1227tt.jpg","n",""
"null","../img/gs/1227gs.jpg","","solution","image-keyboard-response","191","544445","0.0-2.0-3.31","NVH","1","pretest","true","3715810","null","","",""
"null","../img/tt/1227tt.jpg","","mooney2","image-keyboard-response","192","546449","0.0-2.0-4.31","NVH","1","pretest","true","3715810","null","","",""
"1892","<p>How strong was your <strong>aha-experience</strong>?</p>","","aha","html-keyboard-response","193","548343","0.0-2.0-5.31","NVH","1","pretest","true","3715810","54","../img/tt/1227tt.jpg","","6"
"null","<div style=""font-size:60px;""> </div>","","fixation","html-keyboard-response","194","548546","0.0-2.0-0.32","NVH","1","pretest","true","3715810","null","","",""
"null","../img/tt/117tt.jpg","","mooney1","image-keyboard-response","195","551548","0.0-2.0-1.32","NVH","1","pretest","true","3715810","null","../img/tt/117tt.jpg","",""
"265","<p></p>","","recognized","html-keyboard-response","196","551814","0.0-2.0-2.32","NVH","1","pretest","true","3715810","89","../img/tt/117tt.jpg","y",""
"null","../img/gs/117gs.jpg","","solution","image-keyboard-response","197","553817","0.0-2.0-3.32","NVH","1","pretest","true","3715810","null","","",""
"null","../img/tt/117tt.jpg","","mooney2","image-keyboard-response","198","555820","0.0-2.0-4.32","NVH","1","pretest","true","3715810","null","","",""
"236","<p>How strong was your <strong>aha-experience</strong>?</p>","","aha","html-keyboard-response","199","556057","0.0-2.0-5.32","NVH","1","pretest","true","3715810","49","../img/tt/117tt.jpg","","1"
"null","<div style=""font-size:60px;""> </div>","","fixation","html-keyboard-response","200","556259","0.0-2.0-0.33","NVH","1","pretest","true","3715810","null","","",""
"null","../img/tt/1012tt.jpg","","mooney1","image-keyboard-response","201","559263","0.0-2.0-1.33","NVH","1","pretest","true","3715810","null","../img/tt/1012tt.jpg","",""
"1197","<p></p>","","recognized","html-keyboard-response","202","560462","0.0-2.0-2.33","NVH","1","pretest","true","3715810","89","../img/tt/1012tt.jpg","y",""
"null","../img/gs/1012gs.jpg","","solution","image-keyboard-response","203","562465","0.0-2.0-3.33","NVH","1","pretest","true","3715810","null","","",""
"null","../img/tt/1012tt.jpg","","mooney2","image-keyboard-response","204","564468","0.0-2.0-4.33","NVH","1","pretest","true","3715810","null","","",""
"262","<p>How strong was your <strong>aha-experience</strong>?</p>","","aha","html-keyboard-response","205","564731","0.0-2.0-5.33","NVH","1","pretest","true","3715810","55","../img/tt/1012tt.jpg","","7"
"null","<div style=""font-size:60px;""> </div>","","fixation","html-keyboard-response","206","564933","0.0-2.0-0.34","NVH","1","pretest","true","3715810","null","","",""
"null","../img/tt/072tt.jpg","","mooney1","image-keyboard-response","207","567935","0.0-2.0-1.34","NVH","1","pretest","true","3715810","null","../img/tt/072tt.jpg","",""
"364","<p></p>","","recognized","html-keyboard-response","208","568301","0.0-2.0-2.34","NVH","1","pretest","true","3715810","78","../img/tt/072tt.jpg","n",""
"null","../img/gs/072gs.jpg","","solution","image-keyboard-response","209","570304","0.0-2.0-3.34","NVH","1","pretest","true","3715810","null","","",""
"null","../img/tt/072tt.jpg","","mooney2","image-keyboard-response","210","572306","0.0-2.0-4.34","NVH","1","pretest","true","3715810","null","","",""
"2425","<p>How strong was your <strong>aha-experience</strong>?</p>","","aha","html-keyboard-response","211","574733","0.0-2.0-5.34","NVH","1","pretest","true","3715810","54","../img/tt/072tt.jpg","","6"
"null","<div style=""font-size:60px;""> </div>","","fixation","html-keyboard-response","212","574935","0.0-2.0-0.35","NVH","1","pretest","true","3715810","null","","",""
"null","../img/tt/1123tt.jpg","","mooney1","image-keyboard-response","213","577938","0.0-2.0-1.35","NVH","1","pretest","true","3715810","null","../img/tt/1123tt.jpg","",""
"1035","<p></p>","","recognized","html-keyboard-response","214","578975","0.0-2.0-2.35","NVH","1","pretest","true","3715810","78","../img/tt/1123tt.jpg","n",""
"null","../img/gs/1123gs.jpg","","solution","image-keyboard-response","215","580979","0.0-2.0-3.35","NVH","1","pretest","true","3715810","null","","",""
"null","../img/tt/1123tt.jpg","","mooney2","image-keyboard-response","216","582983","0.0-2.0-4.35","NVH","1","pretest","true","3715810","null","","",""
"481","<p>How strong was your <strong>aha-experience</strong>?</p>","","aha","html-keyboard-response","217","583466","0.0-2.0-5.35","NVH","1","pretest","true","3715810","54","../img/tt/1123tt.jpg","","6"
"null","<div style=""font-size:60px;""> </div>","","fixation","html-keyboard-response","218","583667","0.0-2.0-0.36","NVH","1","pretest","true","3715810","null","","",""
"null","../img/tt/1201tt.jpg","","mooney1","image-keyboard-response","219","586671","0.0-2.0-1.36","NVH","1","pretest","true","3715810","null","../img/tt/1201tt.jpg","",""
"283","<p></p>","","recognized","html-keyboard-response","220","586955","0.0-2.0-2.36","NVH","1","pretest","true","3715810","89","../img/tt/1201tt.jpg","y",""
"null","../img/gs/1201gs.jpg","","solution","image-keyboard-response","221","588959","0.0-2.0-3.36","NVH","1","pretest","true","3715810","null","","",""
"null","../img/tt/1201tt.jpg","","mooney2","image-keyboard-response","222","590963","0.0-2.0-4.36","NVH","1","pretest","true","3715810","null","","",""
"269","<p>How strong was your <strong>aha-experience</strong>?</p>","","aha","html-keyboard-response","223","591235","0.0-2.0-5.36","NVH","1","pretest","true","3715810","49","../img/tt/1201tt.jpg","","1"
"null","<div style=""font-size:60px;""> </div>","","fixation","html-keyboard-response","224","591436","0.0-2.0-0.37","NVH","1","pretest","true","3715810","null","","",""
"null","../img/tt/1035tt.jpg","","mooney1","image-keyboard-response","225","594439","0.0-2.0-1.37","NVH","1","pretest","true","3715810","null","../img/tt/1035tt.jpg","",""
"963","<p></p>","","recognized","html-keyboard-response","226","595404","0.0-2.0-2.37","NVH","1","pretest","true","3715810","89","../img/tt/1035tt.jpg","y",""
"null","../img/gs/1035gs.jpg","","solution","image-keyboard-response","227","597407","0.0-2.0-3.37","NVH","1","pretest","true","3715810","null","","",""
"null","../img/tt/1035tt.jpg","","mooney2","image-keyboard-response","228","599410","0.0-2.0-4.37","NVH","1","pretest","true","3715810","null","","",""
"1524","<p>How strong was your <strong>aha-experience</strong>?</p>","","aha","html-keyboard-response","229","600936","0.0-2.0-5.37","NVH","1","pretest","true","3715810","50","../img/tt/1035tt.jpg","","2"
"null","<div style=""font-size:60px;""> </div>","","fixation","html-keyboard-response","230","601138","0.0-2.0-0.38","NVH","1","pretest","true","3715810","null","","",""
"null","../img/tt/122tt.jpg","","mooney1","image-keyboard-response","231","604141","0.0-2.0-1.38","NVH","1","pretest","true","3715810","null","../img/tt/122tt.jpg","",""
"3277","<p></p>","","recognized","html-keyboard-response","232","607420","0.0-2.0-2.38","NVH","1","pretest","true","3715810","78","../img/tt/122tt.jpg","n",""
"null","../img/gs/122gs.jpg","","solution","image-keyboard-response","233","609424","0.0-2.0-3.38","NVH","1","pretest","true","3715810","null","","",""
"null","../img/tt/122tt.jpg","","mooney2","image-keyboard-response","234","611427","0.0-2.0-4.38","NVH","1","pretest","true","3715810","null","","",""
"520","<p>How strong was your <strong>aha-experience</strong>?</p>","","aha","html-keyboard-response","235","611949","0.0-2.0-5.38","NVH","1","pretest","true","3715810","53","../img/tt/122tt.jpg","","5"
"null","<div style=""font-size:60px;""> </div>","","fixation","html-keyboard-response","236","612150","0.0-2.0-0.39","NVH","1","pretest","true","3715810","null","","",""
"null","../img/tt/1268tt.jpg","","mooney1","image-keyboard-response","237","615155","0.0-2.0-1.39","NVH","1","pretest","true","3715810","null","../img/tt/1268tt.jpg","",""
"1775","<p></p>","","recognized","html-keyboard-response","238","616931","0.0-2.0-2.39","NVH","1","pretest","true","3715810","89","../img/tt/1268tt.jpg","y",""
"null","../img/gs/1268gs.jpg","","solution","image-keyboard-response","239","618933","0.0-2.0-3.39","NVH","1","pretest","true","3715810","null","","",""
"null","../img/tt/1268tt.jpg","","mooney2","image-keyboard-response","240","620937","0.0-2.0-4.39","NVH","1","pretest","true","3715810","null","","",""
"8062","<p>How strong was your <strong>aha-experience</strong>?</p>","","aha","html-keyboard-response","241","629001","0.0-2.0-5.39","NVH","1","pretest","true","3715810","50","../img/tt/1268tt.jpg","","2"
"null","<div style=""font-size:60px;""> </div>","","fixation","html-keyboard-response","242","629203","0.0-2.0-0.40","NVH","1","pretest","true","3715810","null","","",""
"null","../img/tt/010tt.jpg","","mooney1","image-keyboard-response","243","632206","0.0-2.0-1.40","NVH","1","pretest","true","3715810","null","../img/tt/010tt.jpg","",""
"418","<p></p>","","recognized","html-keyboard-response","244","632625","0.0-2.0-2.40","NVH","1","pretest","true","3715810","78","../img/tt/010tt.jpg","n",""
"null","../img/gs/010gs.jpg","","solution","image-keyboard-response","245","634629","0.0-2.0-3.40","NVH","1","pretest","true","3715810","null","","",""
"null","../img/tt/010tt.jpg","","mooney2","image-keyboard-response","246","636632","0.0-2.0-4.40","NVH","1","pretest","true","3715810","null","","",""
"1708","<p>How strong was your <strong>aha-experience</strong>?</p>","","aha","html-keyboard-response","247","638342","0.0-2.0-5.40","NVH","1","pretest","true","3715810","53","../img/tt/010tt.jpg","","5"
"null","<div style=""font-size:60px;""> </div>","","fixation","html-keyboard-response","248","638544","0.0-2.0-0.41","NVH","1","pretest","true","3715810","null","","",""
"null","../img/tt/1097tt.jpg","","mooney1","image-keyboard-response","249","641547","0.0-2.0-1.41","NVH","1","pretest","true","3715810","null","../img/tt/1097tt.jpg","",""
"2236","<p></p>","","recognized","html-keyboard-response","250","643784","0.0-2.0-2.41","NVH","1","pretest","true","3715810","78","../img/tt/1097tt.jpg","n",""
"null","../img/gs/1097gs.jpg","","solution","image-keyboard-response","251","645788","0.0-2.0-3.41","NVH","1","pretest","true","3715810","null","","",""
"null","../img/tt/1097tt.jpg","","mooney2","image-keyboard-response","252","647790","0.0-2.0-4.41","NVH","1","pretest","true","3715810","null","","",""
"265","<p>How strong was your <strong>aha-experience</strong>?</p>","","aha","html-keyboard-response","253","648056","0.0-2.0-5.41","NVH","1","pretest","true","3715810","52","../img/tt/1097tt.jpg","","4"
"null","<div style=""font-size:60px;""> </div>","","fixation","html-keyboard-response","254","648258","0.0-2.0-0.42","NVH","1","pretest","true","3715810","null","","",""
"null","../img/tt/1154tt.jpg","","mooney1","image-keyboard-response","255","651260","0.0-2.0-1.42","NVH","1","pretest","true","3715810","null","../img/tt/1154tt.jpg","",""
"1280","<p></p>","","recognized","html-keyboard-response","256","652542","0.0-2.0-2.42","NVH","1","pretest","true","3715810","78","../img/tt/1154tt.jpg","n",""
"null","../img/gs/1154gs.jpg","","solution","image-keyboard-response","257","654545","0.0-2.0-3.42","NVH","1","pretest","true","3715810","null","","",""
"null","../img/tt/1154tt.jpg","","mooney2","image-keyboard-response","258","656549","0.0-2.0-4.42","NVH","1","pretest","true","3715810","null","","",""
"7334","<p>How strong was your <strong>aha-experience</strong>?</p>","","aha","html-keyboard-response","259","663884","0.0-2.0-5.42","NVH","1","pretest","true","3715810","50","../img/tt/1154tt.jpg","","2"
"null","<div style=""font-size:60px;""> </div>","","fixation","html-keyboard-response","260","664085","0.0-2.0-0.43","NVH","1","pretest","true","3715810","null","","",""
"null","../img/tt/1072tt.jpg","","mooney1","image-keyboard-response","261","667090","0.0-2.0-1.43","NVH","1","pretest","true","3715810","null","../img/tt/1072tt.jpg","",""
"115986","<p></p>","","recognized","html-keyboard-response","262","783077","0.0-2.0-2.43","NVH","1","pretest","true","3715810","78","../img/tt/1072tt.jpg","n",""
"null","../img/gs/1072gs.jpg","","solution","image-keyboard-response","263","785080","0.0-2.0-3.43","NVH","1","pretest","true","3715810","null","","",""
"null","../img/tt/1072tt.jpg","","mooney2","image-keyboard-response","264","787081","0.0-2.0-4.43","NVH","1","pretest","true","3715810","null","","",""
"11554","<p>How strong was your <strong>aha-experience</strong>?</p>","","aha","html-keyboard-response","265","798638","0.0-2.0-5.43","NVH","1","pretest","true","3715810","52","../img/tt/1072tt.jpg","","4"
"null","<div style=""font-size:60px;""> </div>","","fixation","html-keyboard-response","266","798841","0.0-2.0-0.44","NVH","1","pretest","true","3715810","null","","",""
"null","../img/tt/074tt.jpg","","mooney1","image-keyboard-response","267","801844","0.0-2.0-1.44","NVH","1","pretest","true","3715810","null","../img/tt/074tt.jpg","",""
"324","<p></p>","","recognized","html-keyboard-response","268","802170","0.0-2.0-2.44","NVH","1","pretest","true","3715810","89","../img/tt/074tt.jpg","y",""
"null","../img/gs/074gs.jpg","","solution","image-keyboard-response","269","804173","0.0-2.0-3.44","NVH","1","pretest","true","3715810","null","","",""
"null","../img/tt/074tt.jpg","","mooney2","image-keyboard-response","270","806177","0.0-2.0-4.44","NVH","1","pretest","true","3715810","null","","",""
"2284","<p>How strong was your <strong>aha-experience</strong>?</p>","","aha","html-keyboard-response","271","808463","0.0-2.0-5.44","NVH","1","pretest","true","3715810","52","../img/tt/074tt.jpg","","4"
"null","<div style=""font-size:60px;""> </div>","","fixation","html-keyboard-response","272","808669","0.0-2.0-0.45","NVH","1","pretest","true","3715810","null","","",""
"null","../img/tt/1087tt.jpg","","mooney1","image-keyboard-response","273","811670","0.0-2.0-1.45","NVH","1","pretest","true","3715810","null","../img/tt/1087tt.jpg","",""
"310","<p></p>","","recognized","html-keyboard-response","274","811982","0.0-2.0-2.45","NVH","1","pretest","true","3715810","89","../img/tt/1087tt.jpg","y",""
"null","../img/gs/1087gs.jpg","","solution","image-keyboard-response","275","813984","0.0-2.0-3.45","NVH","1","pretest","true","3715810","null","","",""
"null","../img/tt/1087tt.jpg","","mooney2","image-keyboard-response","276","815987","0.0-2.0-4.45","NVH","1","pretest","true","3715810","null","","",""
"346","<p>How strong was your <strong>aha-experience</strong>?</p>","","aha","html-keyboard-response","277","816335","0.0-2.0-5.45","NVH","1","pretest","true","3715810","53","../img/tt/1087tt.jpg","","5"
"null","<div style=""font-size:60px;""> </div>","","fixation","html-keyboard-response","278","816537","0.0-2.0-0.46","NVH","1","pretest","true","3715810","null","","",""
"null","../img/tt/1118tt.jpg","","mooney1","image-keyboard-response","279","819540","0.0-2.0-1.46","NVH","1","pretest","true","3715810","null","../img/tt/1118tt.jpg","",""
"291","<p></p>","","recognized","html-keyboard-response","280","819833","0.0-2.0-2.46","NVH","1","pretest","true","3715810","78","../img/tt/1118tt.jpg","n",""
"null","../img/gs/1118gs.jpg","","solution","image-keyboard-response","281","821836","0.0-2.0-3.46","NVH","1","pretest","true","3715810","null","","",""
"null","../img/tt/1118tt.jpg","","mooney2","image-keyboard-response","282","823838","0.0-2.0-4.46","NVH","1","pretest","true","3715810","null","","",""
"707","<p>How strong was your <strong>aha-experience</strong>?</p>","","aha","html-keyboard-response","283","824547","0.0-2.0-5.46","NVH","1","pretest","true","3715810","50","../img/tt/1118tt.jpg","","2"
"null","<div style=""font-size:60px;""> </div>","","fixation","html-keyboard-response","284","824750","0.0-2.0-0.47","NVH","1","pretest","true","3715810","null","","",""
"null","../img/tt/087tt.jpg","","mooney1","image-keyboard-response","285","827752","0.0-2.0-1.47","NVH","1","pretest","true","3715810","null","../img/tt/087tt.jpg","",""
"316","<p></p>","","recognized","html-keyboard-response","286","828070","0.0-2.0-2.47","NVH","1","pretest","true","3715810","89","../img/tt/087tt.jpg","y",""
"null","../img/gs/087gs.jpg","","solution","image-keyboard-response","287","830072","0.0-2.0-3.47","NVH","1","pretest","true","3715810","null","","",""
"null","../img/tt/087tt.jpg","","mooney2","image-keyboard-response","288","832076","0.0-2.0-4.47","NVH","1","pretest","true","3715810","null","","",""
"3002","<p>How strong was your <strong>aha-experience</strong>?</p>","","aha","html-keyboard-response","289","835080","0.0-2.0-5.47","NVH","1","pretest","true","3715810","52","../img/tt/087tt.jpg","","4"
"null","<div style=""font-size:60px;""> </div>","","fixation","html-keyboard-response","290","835282","0.0-2.0-0.48","NVH","1","pretest","true","3715810","null","","",""
"null","../img/tt/1191tt.jpg","","mooney1","image-keyboard-response","291","838286","0.0-2.0-1.48","NVH","1","pretest","true","3715810","null","../img/tt/1191tt.jpg","",""
"572","<p></p>","","recognized","html-keyboard-response","292","838859","0.0-2.0-2.48","NVH","1","pretest","true","3715810","78","../img/tt/1191tt.jpg","n",""
"null","../img/gs/1191gs.jpg","","solution","image-keyboard-response","293","840862","0.0-2.0-3.48","NVH","1","pretest","true","3715810","null","","",""
"null","../img/tt/1191tt.jpg","","mooney2","image-keyboard-response","294","842865","0.0-2.0-4.48","NVH","1","pretest","true","3715810","null","","",""
"1153","<p>How strong was your <strong>aha-experience</strong>?</p>","","aha","html-keyboard-response","295","844020","0.0-2.0-5.48","NVH","1","pretest","true","3715810","54","../img/tt/1191tt.jpg","","6"
"null","<div style=""font-size:60px;""> </div>","","fixation","html-keyboard-response","296","844221","0.0-2.0-0.49","NVH","1","pretest","true","3715810","null","","",""
"null","../img/tt/1287tt.jpg","","mooney1","image-keyboard-response","297","847224","0.0-2.0-1.49","NVH","1","pretest","true","3715810","null","../img/tt/1287tt.jpg","",""
"2149","<p></p>","","recognized","html-keyboard-response","298","849375","0.0-2.0-2.49","NVH","1","pretest","true","3715810","89","../img/tt/1287tt.jpg","y",""
"null","../img/gs/1287gs.jpg","","solution","image-keyboard-response","299","851378","0.0-2.0-3.49","NVH","1","pretest","true","3715810","null","","",""
"null","../img/tt/1287tt.jpg","","mooney2","image-keyboard-response","300","853380","0.0-2.0-4.49","NVH","1","pretest","true","3715810","null","","",""
"399","<p>How strong was your <strong>aha-experience</strong>?</p>","","aha","html-keyboard-response","301","853781","0.0-2.0-5.49","NVH","1","pretest","true","3715810","54","../img/tt/1287tt.jpg","","6"
"null","<div style=""font-size:60px;""> </div>","","fixation","html-keyboard-response","302","853982","0.0-2.0-0.50","NVH","1","pretest","true","3715810","null","","",""
"null","../img/tt/040tt.jpg","","mooney1","image-keyboard-response","303","856984","0.0-2.0-1.50","NVH","1","pretest","true","3715810","null","../img/tt/040tt.jpg","",""
"886","<p></p>","","recognized","html-keyboard-response","304","857872","0.0-2.0-2.50","NVH","1","pretest","true","3715810","78","../img/tt/040tt.jpg","n",""
"null","../img/gs/040gs.jpg","","solution","image-keyboard-response","305","859874","0.0-2.0-3.50","NVH","1","pretest","true","3715810","null","","",""
"null","../img/tt/040tt.jpg","","mooney2","image-keyboard-response","306","861877","0.0-2.0-4.50","NVH","1","pretest","true","3715810","null","","",""
"462","<p>How strong was your <strong>aha-experience</strong>?</p>","","aha","html-keyboard-response","307","862340","0.0-2.0-5.50","NVH","1","pretest","true","3715810","54","../img/tt/040tt.jpg","","6"
"null","<div style=""font-size:60px;""> </div>","","fixation","html-keyboard-response","308","862542","0.0-2.0-0.51","NVH","1","pretest","true","3715810","null","","",""
"null","../img/tt/098tt.jpg","","mooney1","image-keyboard-response","309","865545","0.0-2.0-1.51","NVH","1","pretest","true","3715810","null","../img/tt/098tt.jpg","",""
"160","<p></p>","","recognized","html-keyboard-response","310","865707","0.0-2.0-2.51","NVH","1","pretest","true","3715810","78","../img/tt/098tt.jpg","n",""
"null","../img/gs/098gs.jpg","","solution","image-keyboard-response","311","867710","0.0-2.0-3.51","NVH","1","pretest","true","3715810","null","","",""
"null","../img/tt/098tt.jpg","","mooney2","image-keyboard-response","312","869713","0.0-2.0-4.51","NVH","1","pretest","true","3715810","null","","",""
"372","<p>How strong was your <strong>aha-experience</strong>?</p>","","aha","html-keyboard-response","313","870087","0.0-2.0-5.51","NVH","1","pretest","true","3715810","51","../img/tt/098tt.jpg","","3"
"null","<div style=""font-size:60px;""> </div>","","fixation","html-keyboard-response","314","870290","0.0-2.0-0.52","NVH","1","pretest","true","3715810","null","","",""
"null","../img/tt/039tt.jpg","","mooney1","image-keyboard-response","315","873291","0.0-2.0-1.52","NVH","1","pretest","true","3715810","null","../img/tt/039tt.jpg","",""
"255","<p></p>","","recognized","html-keyboard-response","316","873548","0.0-2.0-2.52","NVH","1","pretest","true","3715810","89","../img/tt/039tt.jpg","y",""
"null","../img/gs/039gs.jpg","","solution","image-keyboard-response","317","875549","0.0-2.0-3.52","NVH","1","pretest","true","3715810","null","","",""
"null","../img/tt/039tt.jpg","","mooney2","image-keyboard-response","318","877552","0.0-2.0-4.52","NVH","1","pretest","true","3715810","null","","",""
"144","<p>How strong was your <strong>aha-experience</strong>?</p>","","aha","html-keyboard-response","319","877699","0.0-2.0-5.52","NVH","1","pretest","true","3715810","54","../img/tt/039tt.jpg","","6"
"null","<div style=""font-size:60px;""> </div>","","fixation","html-keyboard-response","320","877901","0.0-2.0-0.53","NVH","1","pretest","true","3715810","null","","",""
"null","../img/tt/1036tt.jpg","","mooney1","image-keyboard-response","321","880904","0.0-2.0-1.53","NVH","1","pretest","true","3715810","null","../img/tt/1036tt.jpg","",""
"265","<p></p>","","recognized","html-keyboard-response","322","881169","0.0-2.0-2.53","NVH","1","pretest","true","3715810","89","../img/tt/1036tt.jpg","y",""
"null","../img/gs/1036gs.jpg","","solution","image-keyboard-response","323","883171","0.0-2.0-3.53","NVH","1","pretest","true","3715810","null","","",""
"null","../img/tt/1036tt.jpg","","mooney2","image-keyboard-response","324","885173","0.0-2.0-4.53","NVH","1","pretest","true","3715810","null","","",""
"2129","<p>How strong was your <strong>aha-experience</strong>?</p>","","aha","html-keyboard-response","325","887304","0.0-2.0-5.53","NVH","1","pretest","true","3715810","53","../img/tt/1036tt.jpg","","5"
"null","<div style=""font-size:60px;""> </div>","","fixation","html-keyboard-response","326","887506","0.0-2.0-0.54","NVH","1","pretest","true","3715810","null","","",""
"null","../img/tt/1283tt.jpg","","mooney1","image-keyboard-response","327","890510","0.0-2.0-1.54","NVH","1","pretest","true","3715810","null","../img/tt/1283tt.jpg","",""
"767","<p></p>","","recognized","html-keyboard-response","328","891278","0.0-2.0-2.54","NVH","1","pretest","true","3715810","78","../img/tt/1283tt.jpg","n",""
"null","../img/gs/1283gs.jpg","","solution","image-keyboard-response","329","893280","0.0-2.0-3.54","NVH","1","pretest","true","3715810","null","","",""
"null","../img/tt/1283tt.jpg","","mooney2","image-keyboard-response","330","895282","0.0-2.0-4.54","NVH","1","pretest","true","3715810","null","","",""
"1944","<p>How strong was your <strong>aha-experience</strong>?</p>","","aha","html-keyboard-response","331","897228","0.0-2.0-5.54","NVH","1","pretest","true","3715810","50","../img/tt/1283tt.jpg","","2"
"null","<div style=""font-size:60px;""> </div>","","fixation","html-keyboard-response","332","897430","0.0-2.0-0.55","NVH","1","pretest","true","3715810","null","","",""
"null","../img/tt/078tt.jpg","","mooney1","image-keyboard-response","333","900432","0.0-2.0-1.55","NVH","1","pretest","true","3715810","null","../img/tt/078tt.jpg","",""
"1996","<p></p>","","recognized","html-keyboard-response","334","902430","0.0-2.0-2.55","NVH","1","pretest","true","3715810","89","../img/tt/078tt.jpg","y",""
"null","../img/gs/078gs.jpg","","solution","image-keyboard-response","335","904434","0.0-2.0-3.55","NVH","1","pretest","true","3715810","null","","",""
"null","../img/tt/078tt.jpg","","mooney2","image-keyboard-response","336","906438","0.0-2.0-4.55","NVH","1","pretest","true","3715810","null","","",""
"257","<p>How strong was your <strong>aha-experience</strong>?</p>","","aha","html-keyboard-response","337","906695","0.0-2.0-5.55","NVH","1","pretest","true","3715810","54","../img/tt/078tt.jpg","","6"
"null","<div style=""font-size:60px;""> </div>","","fixation","html-keyboard-response","338","906898","0.0-2.0-0.56","NVH","1","pretest","true","3715810","null","","",""
"null","../img/tt/053tt.jpg","","mooney1","image-keyboard-response","339","909901","0.0-2.0-1.56","NVH","1","pretest","true","3715810","null","../img/tt/053tt.jpg","",""
"371","<p></p>","","recognized","html-keyboard-response","340","910273","0.0-2.0-2.56","NVH","1","pretest","true","3715810","78","../img/tt/053tt.jpg","n",""
"null","../img/gs/053gs.jpg","","solution","image-keyboard-response","341","912276","0.0-2.0-3.56","NVH","1","pretest","true","3715810","null","","",""
"null","../img/tt/053tt.jpg","","mooney2","image-keyboard-response","342","914279","0.0-2.0-4.56","NVH","1","pretest","true","3715810","null","","",""
"1769","<p>How strong was your <strong>aha-experience</strong>?</p>","","aha","html-keyboard-response","343","916050","0.0-2.0-5.56","NVH","1","pretest","true","3715810","50","../img/tt/053tt.jpg","","2"
"null","<div style=""font-size:60px;""> </div>","","fixation","html-keyboard-response","344","916254","0.0-2.0-0.57","NVH","1","pretest","true","3715810","null","","",""
"null","../img/tt/1016tt.jpg","","mooney1","image-keyboard-response","345","919257","0.0-2.0-1.57","NVH","1","pretest","true","3715810","null","../img/tt/1016tt.jpg","",""
"1414","<p></p>","","recognized","html-keyboard-response","346","920673","0.0-2.0-2.57","NVH","1","pretest","true","3715810","89","../img/tt/1016tt.jpg","y",""
"null","../img/gs/1016gs.jpg","","solution","image-keyboard-response","347","922676","0.0-2.0-3.57","NVH","1","pretest","true","3715810","null","","",""
"null","../img/tt/1016tt.jpg","","mooney2","image-keyboard-response","348","924678","0.0-2.0-4.57","NVH","1","pretest","true","3715810","null","","",""
"494","<p>How strong was your <strong>aha-experience</strong>?</p>","","aha","html-keyboard-response","349","925174","0.0-2.0-5.57","NVH","1","pretest","true","3715810","53","../img/tt/1016tt.jpg","","5"
"null","<div style=""font-size:60px;""> </div>","","fixation","html-keyboard-response","350","925375","0.0-2.0-0.58","NVH","1","pretest","true","3715810","null","","",""
"null","../img/tt/1120tt.jpg","","mooney1","image-keyboard-response","351","928377","0.0-2.0-1.58","NVH","1","pretest","true","3715810","null","../img/tt/1120tt.jpg","",""
"364","<p></p>","","recognized","html-keyboard-response","352","928743","0.0-2.0-2.58","NVH","1","pretest","true","3715810","89","../img/tt/1120tt.jpg","y",""
"null","../img/gs/1120gs.jpg","","solution","image-keyboard-response","353","930746","0.0-2.0-3.58","NVH","1","pretest","true","3715810","null","","",""
"null","../img/tt/1120tt.jpg","","mooney2","image-keyboard-response","354","932749","0.0-2.0-4.58","NVH","1","pretest","true","3715810","null","","",""
"509","<p>How strong was your <strong>aha-experience</strong>?</p>","","aha","html-keyboard-response","355","933260","0.0-2.0-5.58","NVH","1","pretest","true","3715810","54","../img/tt/1120tt.jpg","","6"
"null","<div style=""font-size:60px;""> </div>","","fixation","html-keyboard-response","356","933463","0.0-2.0-0.59","NVH","1","pretest","true","3715810","null","","",""
"null","../img/tt/1220tt.jpg","","mooney1","image-keyboard-response","357","936467","0.0-2.0-1.59","NVH","1","pretest","true","3715810","null","../img/tt/1220tt.jpg","",""
"240","<p></p>","","recognized","html-keyboard-response","358","936707","0.0-2.0-2.59","NVH","1","pretest","true","3715810","89","../img/tt/1220tt.jpg","y",""
"null","../img/gs/1220gs.jpg","","solution","image-keyboard-response","359","938709","0.0-2.0-3.59","NVH","1","pretest","true","3715810","null","","",""
"null","../img/tt/1220tt.jpg","","mooney2","image-keyboard-response","360","940711","0.0-2.0-4.59","NVH","1","pretest","true","3715810","null","","",""
"267","<p>How strong was your <strong>aha-experience</strong>?</p>","","aha","html-keyboard-response","361","940980","0.0-2.0-5.59","NVH","1","pretest","true","3715810","55","../img/tt/1220tt.jpg","","7"
"null","<div style=""font-size:60px;""> </div>","","fixation","html-keyboard-response","362","941182","0.0-2.0-0.60","NVH","1","pretest","true","3715810","null","","",""
"null","../img/tt/1204tt.jpg","","mooney1","image-keyboard-response","363","944185","0.0-2.0-1.60","NVH","1","pretest","true","3715810","null","../img/tt/1204tt.jpg","",""
"1204","<p></p>","","recognized","html-keyboard-response","364","945390","0.0-2.0-2.60","NVH","1","pretest","true","3715810","78","../img/tt/1204tt.jpg","n",""
"null","../img/gs/1204gs.jpg","","solution","image-keyboard-response","365","947393","0.0-2.0-3.60","NVH","1","pretest","true","3715810","null","","",""
"null","../img/tt/1204tt.jpg","","mooney2","image-keyboard-response","366","949396","0.0-2.0-4.60","NVH","1","pretest","true","3715810","null","","",""
"312","<p>How strong was your <strong>aha-experience</strong>?</p>","","aha","html-keyboard-response","367","949710","0.0-2.0-5.60","NVH","1","pretest","true","3715810","52","../img/tt/1204tt.jpg","","4"
"null","<div style=""font-size:60px;""> </div>","","fixation","html-keyboard-response","368","949911","0.0-2.0-0.61","NVH","1","pretest","true","3715810","null","","",""
"null","../img/tt/1032tt.jpg","","mooney1","image-keyboard-response","369","952913","0.0-2.0-1.61","NVH","1","pretest","true","3715810","null","../img/tt/1032tt.jpg","",""
"317","<p></p>","","recognized","html-keyboard-response","370","953231","0.0-2.0-2.61","NVH","1","pretest","true","3715810","89","../img/tt/1032tt.jpg","y",""
"null","../img/gs/1032gs.jpg","","solution","image-keyboard-response","371","955234","0.0-2.0-3.61","NVH","1","pretest","true","3715810","null","","",""
"null","../img/tt/1032tt.jpg","","mooney2","image-keyboard-response","372","957237","0.0-2.0-4.61","NVH","1","pretest","true","3715810","null","","",""
"1276","<p>How strong was your <strong>aha-experience</strong>?</p>","","aha","html-keyboard-response","373","958515","0.0-2.0-5.61","NVH","1","pretest","true","3715810","52","../img/tt/1032tt.jpg","","4"
"null","<div style=""font-size:60px;""> </div>","","fixation","html-keyboard-response","374","958718","0.0-2.0-0.62","NVH","1","pretest","true","3715810","null","","",""
"null","../img/tt/1054tt.jpg","","mooney1","image-keyboard-response","375","961721","0.0-2.0-1.62","NVH","1","pretest","true","3715810","null","../img/tt/1054tt.jpg","",""
"440","<p></p>","","recognized","html-keyboard-response","376","962162","0.0-2.0-2.62","NVH","1","pretest","true","3715810","78","../img/tt/1054tt.jpg","n",""
"null","../img/gs/1054gs.jpg","","solution","image-keyboard-response","377","964165","0.0-2.0-3.62","NVH","1","pretest","true","3715810","null","","",""
"null","../img/tt/1054tt.jpg","","mooney2","image-keyboard-response","378","966168","0.0-2.0-4.62","NVH","1","pretest","true","3715810","null","","",""
"521","<p>How strong was your <strong>aha-experience</strong>?</p>","","aha","html-keyboard-response","379","966691","0.0-2.0-5.62","NVH","1","pretest","true","3715810","51","../img/tt/1054tt.jpg","","3"
"null","<div style=""font-size:60px;""> </div>","","fixation","html-keyboard-response","380","966893","0.0-2.0-0.63","NVH","1","pretest","true","3715810","null","","",""
"null","../img/tt/1249tt.jpg","","mooney1","image-keyboard-response","381","969895","0.0-2.0-1.63","NVH","1","pretest","true","3715810","null","../img/tt/1249tt.jpg","",""
"112","<p></p>","","recognized","html-keyboard-response","382","970009","0.0-2.0-2.63","NVH","1","pretest","true","3715810","89","../img/tt/1249tt.jpg","y",""
"null","../img/gs/1249gs.jpg","","solution","image-keyboard-response","383","972011","0.0-2.0-3.63","NVH","1","pretest","true","3715810","null","","",""
"null","../img/tt/1249tt.jpg","","mooney2","image-keyboard-response","384","974013","0.0-2.0-4.63","NVH","1","pretest","true","3715810","null","","",""
"37","<p>How strong was your <strong>aha-experience</strong>?</p>","","aha","html-keyboard-response","385","974052","0.0-2.0-5.63","NVH","1","pretest","true","3715810","51","../img/tt/1249tt.jpg","","3"
"null","<div style=""font-size:60px;""> </div>","","fixation","html-keyboard-response","386","974254","0.0-2.0-0.64","NVH","1","pretest","true","3715810","null","","",""
"null","../img/tt/086tt.jpg","","mooney1","image-keyboard-response","387","977257","0.0-2.0-1.64","NVH","1","pretest","true","3715810","null","../img/tt/086tt.jpg","",""
"338","<p></p>","","recognized","html-keyboard-response","388","977596","0.0-2.0-2.64","NVH","1","pretest","true","3715810","78","../img/tt/086tt.jpg","n",""
"null","../img/gs/086gs.jpg","","solution","image-keyboard-response","389","979599","0.0-2.0-3.64","NVH","1","pretest","true","3715810","null","","",""
"null","../img/tt/086tt.jpg","","mooney2","image-keyboard-response","390","981602","0.0-2.0-4.64","NVH","1","pretest","true","3715810","null","","",""
"144","<p>How strong was your <strong>aha-experience</strong>?</p>","","aha","html-keyboard-response","391","981748","0.0-2.0-5.64","NVH","1","pretest","true","3715810","53","../img/tt/086tt.jpg","","5"
"null","<div style=""font-size:60px;""> </div>","","fixation","html-keyboard-response","392","981950","0.0-2.0-0.65","NVH","1","pretest","true","3715810","null","","",""
"null","../img/tt/1091tt.jpg","","mooney1","image-keyboard-response","393","984953","0.0-2.0-1.65","NVH","1","pretest","true","3715810","null","../img/tt/1091tt.jpg","",""
"624","<p></p>","","recognized","html-keyboard-response","394","985579","0.0-2.0-2.65","NVH","1","pretest","true","3715810","89","../img/tt/1091tt.jpg","y",""
"null","../img/gs/1091gs.jpg","","solution","image-keyboard-response","395","987582","0.0-2.0-3.65","NVH","1","pretest","true","3715810","null","","",""
"null","../img/tt/1091tt.jpg","","mooney2","image-keyboard-response","396","989584","0.0-2.0-4.65","NVH","1","pretest","true","3715810","null","","",""
"178","<p>How strong was your <strong>aha-experience</strong>?</p>","","aha","html-keyboard-response","397","989764","0.0-2.0-5.65","NVH","1","pretest","true","3715810","52","../img/tt/1091tt.jpg","","4"
"null","<div style=""font-size:60px;""> </div>","","fixation","html-keyboard-response","398","989966","0.0-2.0-0.66","NVH","1","pretest","true","3715810","null","","",""
"null","../img/tt/1131tt.jpg","","mooney1","image-keyboard-response","399","992969","0.0-2.0-1.66","NVH","1","pretest","true","3715810","null","../img/tt/1131tt.jpg","",""
"1759","<p></p>","","recognized","html-keyboard-response","400","994729","0.0-2.0-2.66","NVH","1","pretest","true","3715810","78","../img/tt/1131tt.jpg","n",""
"null","../img/gs/1131gs.jpg","","solution","image-keyboard-response","401","996733","0.0-2.0-3.66","NVH","1","pretest","true","3715810","null","","",""
"null","../img/tt/1131tt.jpg","","mooney2","image-keyboard-response","402","998736","0.0-2.0-4.66","NVH","1","pretest","true","3715810","null","","",""
"2688","<p>How strong was your <strong>aha-experience</strong>?</p>","","aha","html-keyboard-response","403","1001425","0.0-2.0-5.66","NVH","1","pretest","true","3715810","50","../img/tt/1131tt.jpg","","2"
"null","<div style=""font-size:60px;""> </div>","","fixation","html-keyboard-response","404","1001627","0.0-2.0-0.67","NVH","1","pretest","true","3715810","null","","",""
"null","../img/tt/060tt.jpg","","mooney1","image-keyboard-response","405","1004630","0.0-2.0-1.67","NVH","1","pretest","true","3715810","null","../img/tt/060tt.jpg","",""
"567","<p></p>","","recognized","html-keyboard-response","406","1005198","0.0-2.0-2.67","NVH","1","pretest","true","3715810","78","../img/tt/060tt.jpg","n",""
"null","../img/gs/060gs.jpg","","solution","image-keyboard-response","407","1007202","0.0-2.0-3.67","NVH","1","pretest","true","3715810","null","","",""
"null","../img/tt/060tt.jpg","","mooney2","image-keyboard-response","408","1009204","0.0-2.0-4.67","NVH","1","pretest","true","3715810","null","","",""
"411","<p>How strong was your <strong>aha-experience</strong>?</p>","","aha","html-keyboard-response","409","1009617","0.0-2.0-5.67","NVH","1","pretest","true","3715810","51","../img/tt/060tt.jpg","","3"
"null","<div style=""font-size:60px;""> </div>","","fixation","html-keyboard-response","410","1009819","0.0-2.0-0.68","NVH","1","pretest","true","3715810","null","","",""
"null","../img/tt/1207tt.jpg","","mooney1","image-keyboard-response","411","1012821","0.0-2.0-1.68","NVH","1","pretest","true","3715810","null","../img/tt/1207tt.jpg","",""
"202","<p></p>","","recognized","html-keyboard-response","412","1013025","0.0-2.0-2.68","NVH","1","pretest","true","3715810","89","../img/tt/1207tt.jpg","y",""
"null","../img/gs/1207gs.jpg","","solution","image-keyboard-response","413","1015027","0.0-2.0-3.68","NVH","1","pretest","true","3715810","null","","",""
"null","../img/tt/1207tt.jpg","","mooney2","image-keyboard-response","414","1017030","0.0-2.0-4.68","NVH","1","pretest","true","3715810","null","","",""
"73","<p>How strong was your <strong>aha-experience</strong>?</p>","","aha","html-keyboard-response","415","1017106","0.0-2.0-5.68","NVH","1","pretest","true","3715810","53","../img/tt/1207tt.jpg","","5"
"null","<div style=""font-size:60px;""> </div>","","fixation","html-keyboard-response","416","1017307","0.0-2.0-0.69","NVH","1","pretest","true","3715810","null","","",""
"null","../img/tt/1180tt.jpg","","mooney1","image-keyboard-response","417","1020310","0.0-2.0-1.69","NVH","1","pretest","true","3715810","null","../img/tt/1180tt.jpg","",""
"324","<p></p>","","recognized","html-keyboard-response","418","1020635","0.0-2.0-2.69","NVH","1","pretest","true","3715810","89","../img/tt/1180tt.jpg","y",""
"null","../img/gs/1180gs.jpg","","solution","image-keyboard-response","419","1022637","0.0-2.0-3.69","NVH","1","pretest","true","3715810","null","","",""
"null","../img/tt/1180tt.jpg","","mooney2","image-keyboard-response","420","1024641","0.0-2.0-4.69","NVH","1","pretest","true","3715810","null","","",""
"147","<p>How strong was your <strong>aha-experience</strong>?</p>","","aha","html-keyboard-response","421","1024790","0.0-2.0-5.69","NVH","1","pretest","true","3715810","54","../img/tt/1180tt.jpg","","6"
"null","<div style=""font-size:60px;""> </div>","","fixation","html-keyboard-response","422","1024991","0.0-2.0-0.70","NVH","1","pretest","true","3715810","null","","",""
"null","../img/tt/1079tt.jpg","","mooney1","image-keyboard-response","423","1027993","0.0-2.0-1.70","NVH","1","pretest","true","3715810","null","../img/tt/1079tt.jpg","",""
"123","<p></p>","","recognized","html-keyboard-response","424","1028119","0.0-2.0-2.70","NVH","1","pretest","true","3715810","89","../img/tt/1079tt.jpg","y",""
"null","../img/gs/1079gs.jpg","","solution","image-keyboard-response","425","1030120","0.0-2.0-3.70","NVH","1","pretest","true","3715810","null","","",""
"null","../img/tt/1079tt.jpg","","mooney2","image-keyboard-response","426","1032125","0.0-2.0-4.70","NVH","1","pretest","true","3715810","null","","",""
"2486","<p>How strong was your <strong>aha-experience</strong>?</p>","","aha","html-keyboard-response","427","1034612","0.0-2.0-5.70","NVH","1","pretest","true","3715810","53","../img/tt/1079tt.jpg","","5"
"null","<div style=""font-size:60px;""> </div>","","fixation","html-keyboard-response","428","1034814","0.0-2.0-0.71","NVH","1","pretest","true","3715810","null","","",""
"null","../img/tt/1240tt.jpg","","mooney1","image-keyboard-response","429","1037818","0.0-2.0-1.71","NVH","1","pretest","true","3715810","null","../img/tt/1240tt.jpg","",""
"278","<p></p>","","recognized","html-keyboard-response","430","1038097","0.0-2.0-2.71","NVH","1","pretest","true","3715810","89","../img/tt/1240tt.jpg","y",""
"null","../img/gs/1240gs.jpg","","solution","image-keyboard-response","431","1040099","0.0-2.0-3.71","NVH","1","pretest","true","3715810","null","","",""
"null","../img/tt/1240tt.jpg","","mooney2","image-keyboard-response","432","1042104","0.0-2.0-4.71","NVH","1","pretest","true","3715810","null","","",""
"298","<p>How strong was your <strong>aha-experience</strong>?</p>","","aha","html-keyboard-response","433","1042403","0.0-2.0-5.71","NVH","1","pretest","true","3715810","53","../img/tt/1240tt.jpg","","5"
"null","<div style=""font-size:60px;""> </div>","","fixation","html-keyboard-response","434","1042605","0.0-2.0-0.72","NVH","1","pretest","true","3715810","null","","",""
"null","../img/tt/030tt.jpg","","mooney1","image-keyboard-response","435","1045607","0.0-2.0-1.72","NVH","1","pretest","true","3715810","null","../img/tt/030tt.jpg","",""
"198","<p></p>","","recognized","html-keyboard-response","436","1045806","0.0-2.0-2.72","NVH","1","pretest","true","3715810","89","../img/tt/030tt.jpg","y",""
"null","../img/gs/030gs.jpg","","solution","image-keyboard-response","437","1047810","0.0-2.0-3.72","NVH","1","pretest","true","3715810","null","","",""
"null","../img/tt/030tt.jpg","","mooney2","image-keyboard-response","438","1049814","0.0-2.0-4.72","NVH","1","pretest","true","3715810","null","","",""
"9","<p>How strong was your <strong>aha-experience</strong>?</p>","","aha","html-keyboard-response","439","1049824","0.0-2.0-5.72","NVH","1","pretest","true","3715810","53","../img/tt/030tt.jpg","","5"
"null","<div style=""font-size:60px;""> </div>","","fixation","html-keyboard-response","440","1050026","0.0-2.0-0.73","NVH","1","pretest","true","3715810","null","","",""
"null","../img/tt/1103tt.jpg","","mooney1","image-keyboard-response","441","1053027","0.0-2.0-1.73","NVH","1","pretest","true","3715810","null","../img/tt/1103tt.jpg","",""
"506","<p></p>","","recognized","html-keyboard-response","442","1053535","0.0-2.0-2.73","NVH","1","pretest","true","3715810","78","../img/tt/1103tt.jpg","n",""
"null","../img/gs/1103gs.jpg","","solution","image-keyboard-response","443","1055541","0.0-2.0-3.73","NVH","1","pretest","true","3715810","null","","",""
"null","../img/tt/1103tt.jpg","","mooney2","image-keyboard-response","444","1057543","0.0-2.0-4.73","NVH","1","pretest","true","3715810","null","","",""
"576","<p>How strong was your <strong>aha-experience</strong>?</p>","","aha","html-keyboard-response","445","1058121","0.0-2.0-5.73","NVH","1","pretest","true","3715810","51","../img/tt/1103tt.jpg","","3"
"null","<div style=""font-size:60px;""> </div>","","fixation","html-keyboard-response","446","1058322","0.0-2.0-0.74","NVH","1","pretest","true","3715810","null","","",""
"null","../img/tt/091tt.jpg","","mooney1","image-keyboard-response","447","1061324","0.0-2.0-1.74","NVH","1","pretest","true","3715810","null","../img/tt/091tt.jpg","",""
"257","<p></p>","","recognized","html-keyboard-response","448","1061582","0.0-2.0-2.74","NVH","1","pretest","true","3715810","78","../img/tt/091tt.jpg","n",""
"null","../img/gs/091gs.jpg","","solution","image-keyboard-response","449","1063585","0.0-2.0-3.74","NVH","1","pretest","true","3715810","null","","",""
"null","../img/tt/091tt.jpg","","mooney2","image-keyboard-response","450","1065587","0.0-2.0-4.74","NVH","1","pretest","true","3715810","null","","",""
"254","<p>How strong was your <strong>aha-experience</strong>?</p>","","aha","html-keyboard-response","451","1065843","0.0-2.0-5.74","NVH","1","pretest","true","3715810","52","../img/tt/091tt.jpg","","4"
"null","<div style=""font-size:60px;""> </div>","","fixation","html-keyboard-response","452","1066045","0.0-2.0-0.75","NVH","1","pretest","true","3715810","null","","",""
"null","../img/tt/1122tt.jpg","","mooney1","image-keyboard-response","453","1069048","0.0-2.0-1.75","NVH","1","pretest","true","3715810","null","../img/tt/1122tt.jpg","",""
"281","<p></p>","","recognized","html-keyboard-response","454","1069330","0.0-2.0-2.75","NVH","1","pretest","true","3715810","78","../img/tt/1122tt.jpg","n",""
"null","../img/gs/1122gs.jpg","","solution","image-keyboard-response","455","1071334","0.0-2.0-3.75","NVH","1","pretest","true","3715810","null","","",""
"null","../img/tt/1122tt.jpg","","mooney2","image-keyboard-response","456","1073336","0.0-2.0-4.75","NVH","1","pretest","true","3715810","null","","",""
"294","<p>How strong was your <strong>aha-experience</strong>?</p>","","aha","html-keyboard-response","457","1073633","0.0-2.0-5.75","NVH","1","pretest","true","3715810","52","../img/tt/1122tt.jpg","","4"
"null","<div style=""font-size:60px;""> </div>","","fixation","html-keyboard-response","458","1073835","0.0-2.0-0.76","NVH","1","pretest","true","3715810","null","","",""
"null","../img/tt/1113tt.jpg","","mooney1","image-keyboard-response","459","1076838","0.0-2.0-1.76","NVH","1","pretest","true","3715810","null","../img/tt/1113tt.jpg","",""
"1323","<p></p>","","recognized","html-keyboard-response","460","1078163","0.0-2.0-2.76","NVH","1","pretest","true","3715810","78","../img/tt/1113tt.jpg","n",""
"null","../img/gs/1113gs.jpg","","solution","image-keyboard-response","461","1080166","0.0-2.0-3.76","NVH","1","pretest","true","3715810","null","","",""
"null","../img/tt/1113tt.jpg","","mooney2","image-keyboard-response","462","1082169","0.0-2.0-4.76","NVH","1","pretest","true","3715810","null","","",""
"369","<p>How strong was your <strong>aha-experience</strong>?</p>","","aha","html-keyboard-response","463","1082540","0.0-2.0-5.76","NVH","1","pretest","true","3715810","50","../img/tt/1113tt.jpg","","2"
"null","<div style=""font-size:60px;""> </div>","","fixation","html-keyboard-response","464","1082742","0.0-2.0-0.77","NVH","1","pretest","true","3715810","null","","",""
"null","../img/tt/1150tt.jpg","","mooney1","image-keyboard-response","465","1085745","0.0-2.0-1.77","NVH","1","pretest","true","3715810","null","../img/tt/1150tt.jpg","",""
"240","<p></p>","","recognized","html-keyboard-response","466","1085987","0.0-2.0-2.77","NVH","1","pretest","true","3715810","89","../img/tt/1150tt.jpg","y",""
"null","../img/gs/1150gs.jpg","","solution","image-keyboard-response","467","1087990","0.0-2.0-3.77","NVH","1","pretest","true","3715810","null","","",""
"null","../img/tt/1150tt.jpg","","mooney2","image-keyboard-response","468","1089994","0.0-2.0-4.77","NVH","1","pretest","true","3715810","null","","",""
"3765","<p>How strong was your <strong>aha-experience</strong>?</p>","","aha","html-keyboard-response","469","1093761","0.0-2.0-5.77","NVH","1","pretest","true","3715810","51","../img/tt/1150tt.jpg","","3"
"null","<div style=""font-size:60px;""> </div>","","fixation","html-keyboard-response","470","1093962","0.0-2.0-0.78","NVH","1","pretest","true","3715810","null","","",""
"null","../img/tt/1257tt.jpg","","mooney1","image-keyboard-response","471","1096965","0.0-2.0-1.78","NVH","1","pretest","true","3715810","null","../img/tt/1257tt.jpg","",""
"255","<p></p>","","recognized","html-keyboard-response","472","1097222","0.0-2.0-2.78","NVH","1","pretest","true","3715810","89","../img/tt/1257tt.jpg","y",""
"null","../img/gs/1257gs.jpg","","solution","image-keyboard-response","473","1099224","0.0-2.0-3.78","NVH","1","pretest","true","3715810","null","","",""
"null","../img/tt/1257tt.jpg","","mooney2","image-keyboard-response","474","1101227","0.0-2.0-4.78","NVH","1","pretest","true","3715810","null","","",""
"161","<p>How strong was your <strong>aha-experience</strong>?</p>","","aha","html-keyboard-response","475","1101390","0.0-2.0-5.78","NVH","1","pretest","true","3715810","53","../img/tt/1257tt.jpg","","5"
"null","<div style=""font-size:60px;""> </div>","","fixation","html-keyboard-response","476","1101592","0.0-2.0-0.79","NVH","1","pretest","true","3715810","null","","",""
"null","../img/tt/035tt.jpg","","mooney1","image-keyboard-response","477","1104594","0.0-2.0-1.79","NVH","1","pretest","true","3715810","null","../img/tt/035tt.jpg","",""
"292","<p></p>","","recognized","html-keyboard-response","478","1104889","0.0-2.0-2.79","NVH","1","pretest","true","3715810","89","../img/tt/035tt.jpg","y",""
"null","../img/gs/035gs.jpg","","solution","image-keyboard-response","479","1106891","0.0-2.0-3.79","NVH","1","pretest","true","3715810","null","","",""
"null","../img/tt/035tt.jpg","","mooney2","image-keyboard-response","480","1108895","0.0-2.0-4.79","NVH","1","pretest","true","3715810","null","","",""
"164","<p>How strong was your <strong>aha-experience</strong>?</p>","","aha","html-keyboard-response","481","1109060","0.0-2.0-5.79","NVH","1","pretest","true","3715810","53","../img/tt/035tt.jpg","","5"
"null","<div style=""font-size:60px;""> </div>","","fixation","html-keyboard-response","482","1109262","0.0-2.0-0.80","NVH","1","pretest","true","3715810","null","","",""
"null","../img/tt/1243tt.jpg","","mooney1","image-keyboard-response","483","1112265","0.0-2.0-1.80","NVH","1","pretest","true","3715810","null","../img/tt/1243tt.jpg","",""
"398","<p></p>","","recognized","html-keyboard-response","484","1112664","0.0-2.0-2.80","NVH","1","pretest","true","3715810","78","../img/tt/1243tt.jpg","n",""
"null","../img/gs/1243gs.jpg","","solution","image-keyboard-response","485","1114666","0.0-2.0-3.80","NVH","1","pretest","true","3715810","null","","",""
"null","../img/tt/1243tt.jpg","","mooney2","image-keyboard-response","486","1116669","0.0-2.0-4.80","NVH","1","pretest","true","3715810","null","","",""
"2098","<p>How strong was your <strong>aha-experience</strong>?</p>","","aha","html-keyboard-response","487","1118769","0.0-2.0-5.80","NVH","1","pretest","true","3715810","54","../img/tt/1243tt.jpg","","6"
"null","<div style=""font-size:60px;""> </div>","","fixation","html-keyboard-response","488","1118971","0.0-2.0-0.81","NVH","1","pretest","true","3715810","null","","",""
"null","../img/tt/1254tt.jpg","","mooney1","image-keyboard-response","489","1121973","0.0-2.0-1.81","NVH","1","pretest","true","3715810","null","../img/tt/1254tt.jpg","",""
"749","<p></p>","","recognized","html-keyboard-response","490","1122724","0.0-2.0-2.81","NVH","1","pretest","true","3715810","78","../img/tt/1254tt.jpg","n",""
"null","../img/gs/1254gs.jpg","","solution","image-keyboard-response","491","1124727","0.0-2.0-3.81","NVH","1","pretest","true","3715810","null","","",""
"null","../img/tt/1254tt.jpg","","mooney2","image-keyboard-response","492","1126729","0.0-2.0-4.81","NVH","1","pretest","true","3715810","null","","",""
"173","<p>How strong was your <strong>aha-experience</strong>?</p>","","aha","html-keyboard-response","493","1126904","0.0-2.0-5.81","NVH","1","pretest","true","3715810","54","../img/tt/1254tt.jpg","","6"
"null","<div style=""font-size:60px;""> </div>","","fixation","html-keyboard-response","494","1127106","0.0-2.0-0.82","NVH","1","pretest","true","3715810","null","","",""
"null","../img/tt/104tt.jpg","","mooney1","image-keyboard-response","495","1130109","0.0-2.0-1.82","NVH","1","pretest","true","3715810","null","../img/tt/104tt.jpg","",""
"192","<p></p>","","recognized","html-keyboard-response","496","1130302","0.0-2.0-2.82","NVH","1","pretest","true","3715810","89","../img/tt/104tt.jpg","y",""
"null","../img/gs/104gs.jpg","","solution","image-keyboard-response","497","1132304","0.0-2.0-3.82","NVH","1","pretest","true","3715810","null","","",""
"null","../img/tt/104tt.jpg","","mooney2","image-keyboard-response","498","1134307","0.0-2.0-4.82","NVH","1","pretest","true","3715810","null","","",""
"2437","<p>How strong was your <strong>aha-experience</strong>?</p>","","aha","html-keyboard-response","499","1136746","0.0-2.0-5.82","NVH","1","pretest","true","3715810","53","../img/tt/104tt.jpg","","5"
"null","<div style=""font-size:60px;""> </div>","","fixation","html-keyboard-response","500","1136948","0.0-2.0-0.83","NVH","1","pretest","true","3715810","null","","",""
"null","../img/tt/1284tt.jpg","","mooney1","image-keyboard-response","501","1139951","0.0-2.0-1.83","NVH","1","pretest","true","3715810","null","../img/tt/1284tt.jpg","",""
"15","<p></p>","","recognized","html-keyboard-response","502","1139969","0.0-2.0-2.83","NVH","1","pretest","true","3715810","89","../img/tt/1284tt.jpg","y",""
"null","../img/gs/1284gs.jpg","","solution","image-keyboard-response","503","1141973","0.0-2.0-3.83","NVH","1","pretest","true","3715810","null","","",""
"null","../img/tt/1284tt.jpg","","mooney2","image-keyboard-response","504","1143977","0.0-2.0-4.83","NVH","1","pretest","true","3715810","null","","",""
"280","<p>How strong was your <strong>aha-experience</strong>?</p>","","aha","html-keyboard-response","505","1144257","0.0-2.0-5.83","NVH","1","pretest","true","3715810","51","../img/tt/1284tt.jpg","","3"
"null","<div style=""font-size:60px;""> </div>","","fixation","html-keyboard-response","506","1144459","0.0-2.0-0.84","NVH","1","pretest","true","3715810","null","","",""
"null","../img/tt/031tt.jpg","","mooney1","image-keyboard-response","507","1147461","0.0-2.0-1.84","NVH","1","pretest","true","3715810","null","../img/tt/031tt.jpg","",""
"257","<p></p>","","recognized","html-keyboard-response","508","1147720","0.0-2.0-2.84","NVH","1","pretest","true","3715810","89","../img/tt/031tt.jpg","y",""
"null","../img/gs/031gs.jpg","","solution","image-keyboard-response","509","1149723","0.0-2.0-3.84","NVH","1","pretest","true","3715810","null","","",""
"null","../img/tt/031tt.jpg","","mooney2","image-keyboard-response","510","1151726","0.0-2.0-4.84","NVH","1","pretest","true","3715810","null","","",""
"313","<p>How strong was your <strong>aha-experience</strong>?</p>","","aha","html-keyboard-response","511","1152041","0.0-2.0-5.84","NVH","1","pretest","true","3715810","53","../img/tt/031tt.jpg","","5"
"null","<div style=""font-size:60px;""> </div>","","fixation","html-keyboard-response","512","1152243","0.0-2.0-0.85","NVH","1","pretest","true","3715810","null","","",""
"null","../img/tt/111tt.jpg","","mooney1","image-keyboard-response","513","1155245","0.0-2.0-1.85","NVH","1","pretest","true","3715810","null","../img/tt/111tt.jpg","",""
"93","<p></p>","","recognized","html-keyboard-response","514","1155339","0.0-2.0-2.85","NVH","1","pretest","true","3715810","89","../img/tt/111tt.jpg","y",""
"null","../img/gs/111gs.jpg","","solution","image-keyboard-response","515","1157342","0.0-2.0-3.85","NVH","1","pretest","true","3715810","null","","",""
"null","../img/tt/111tt.jpg","","mooney2","image-keyboard-response","516","1159344","0.0-2.0-4.85","NVH","1","pretest","true","3715810","null","","",""
"68","<p>How strong was your <strong>aha-experience</strong>?</p>","","aha","html-keyboard-response","517","1159414","0.0-2.0-5.85","NVH","1","pretest","true","3715810","55","../img/tt/111tt.jpg","","7"
"null","<div style=""font-size:60px;""> </div>","","fixation","html-keyboard-response","518","1159616","0.0-2.0-0.86","NVH","1","pretest","true","3715810","null","","",""
"null","../img/tt/1099tt.jpg","","mooney1","image-keyboard-response","519","1162618","0.0-2.0-1.86","NVH","1","pretest","true","3715810","null","../img/tt/1099tt.jpg","",""
"187","<p></p>","","recognized","html-keyboard-response","520","1162807","0.0-2.0-2.86","NVH","1","pretest","true","3715810","89","../img/tt/1099tt.jpg","y",""
"null","../img/gs/1099gs.jpg","","solution","image-keyboard-response","521","1164809","0.0-2.0-3.86","NVH","1","pretest","true","3715810","null","","",""
"null","../img/tt/1099tt.jpg","","mooney2","image-keyboard-response","522","1166811","0.0-2.0-4.86","NVH","1","pretest","true","3715810","null","","",""
"167","<p>How strong was your <strong>aha-experience</strong>?</p>","","aha","html-keyboard-response","523","1166980","0.0-2.0-5.86","NVH","1","pretest","true","3715810","53","../img/tt/1099tt.jpg","","5"
"null","<div style=""font-size:60px;""> </div>","","fixation","html-keyboard-response","524","1167182","0.0-2.0-0.87","NVH","1","pretest","true","3715810","null","","",""
"null","../img/tt/1179tt.jpg","","mooney1","image-keyboard-response","525","1170186","0.0-2.0-1.87","NVH","1","pretest","true","3715810","null","../img/tt/1179tt.jpg","",""
"258","<p></p>","","recognized","html-keyboard-response","526","1170445","0.0-2.0-2.87","NVH","1","pretest","true","3715810","89","../img/tt/1179tt.jpg","y",""
"null","../img/gs/1179gs.jpg","","solution","image-keyboard-response","527","1172446","0.0-2.0-3.87","NVH","1","pretest","true","3715810","null","","",""
"null","../img/tt/1179tt.jpg","","mooney2","image-keyboard-response","528","1174450","0.0-2.0-4.87","NVH","1","pretest","true","3715810","null","","",""
"14","<p>How strong was your <strong>aha-experience</strong>?</p>","","aha","html-keyboard-response","529","1174466","0.0-2.0-5.87","NVH","1","pretest","true","3715810","53","../img/tt/1179tt.jpg","","5"
"null","<div style=""font-size:60px;""> </div>","","fixation","html-keyboard-response","530","1174671","0.0-2.0-0.88","NVH","1","pretest","true","3715810","null","","",""
"null","../img/tt/1048tt.jpg","","mooney1","image-keyboard-response","531","1177674","0.0-2.0-1.88","NVH","1","pretest","true","3715810","null","../img/tt/1048tt.jpg","",""
"134","<p></p>","","recognized","html-keyboard-response","532","1177810","0.0-2.0-2.88","NVH","1","pretest","true","3715810","78","../img/tt/1048tt.jpg","n",""
"null","../img/gs/1048gs.jpg","","solution","image-keyboard-response","533","1179813","0.0-2.0-3.88","NVH","1","pretest","true","3715810","null","","",""
"null","../img/tt/1048tt.jpg","","mooney2","image-keyboard-response","534","1181816","0.0-2.0-4.88","NVH","1","pretest","true","3715810","null","","",""
"306","<p>How strong was your <strong>aha-experience</strong>?</p>","","aha","html-keyboard-response","535","1182126","0.0-2.0-5.88","NVH","1","pretest","true","3715810","51","../img/tt/1048tt.jpg","","3"
"null","<div style=""font-size:60px;""> </div>","","fixation","html-keyboard-response","536","1182328","0.0-2.0-0.89","NVH","1","pretest","true","3715810","null","","",""
"null","../img/tt/1214tt.jpg","","mooney1","image-keyboard-response","537","1185330","0.0-2.0-1.89","NVH","1","pretest","true","3715810","null","../img/tt/1214tt.jpg","",""
"313","<p></p>","","recognized","html-keyboard-response","538","1185644","0.0-2.0-2.89","NVH","1","pretest","true","3715810","78","../img/tt/1214tt.jpg","n",""
"null","../img/gs/1214gs.jpg","","solution","image-keyboard-response","539","1187647","0.0-2.0-3.89","NVH","1","pretest","true","3715810","null","","",""
"null","../img/tt/1214tt.jpg","","mooney2","image-keyboard-response","540","1189651","0.0-2.0-4.89","NVH","1","pretest","true","3715810","null","","",""
"687","<p>How strong was your <strong>aha-experience</strong>?</p>","","aha","html-keyboard-response","541","1190340","0.0-2.0-5.89","NVH","1","pretest","true","3715810","50","../img/tt/1214tt.jpg","","2"
"null","<div style=""font-size:60px;""> </div>","","fixation","html-keyboard-response","542","1190542","0.0-2.0-0.90","NVH","1","pretest","true","3715810","null","","",""
"null","../img/tt/1092tt.jpg","","mooney1","image-keyboard-response","543","1193544","0.0-2.0-1.90","NVH","1","pretest","true","3715810","null","../img/tt/1092tt.jpg","",""
"287","<p></p>","","recognized","html-keyboard-response","544","1193833","0.0-2.0-2.90","NVH","1","pretest","true","3715810","89","../img/tt/1092tt.jpg","y",""
"null","../img/gs/1092gs.jpg","","solution","image-keyboard-response","545","1195836","0.0-2.0-3.90","NVH","1","pretest","true","3715810","null","","",""
"null","../img/tt/1092tt.jpg","","mooney2","image-keyboard-response","546","1197840","0.0-2.0-4.90","NVH","1","pretest","true","3715810","null","","",""
"3806","<p>How strong was your <strong>aha-experience</strong>?</p>","","aha","html-keyboard-response","547","1201647","0.0-2.0-5.90","NVH","1","pretest","true","3715810","52","../img/tt/1092tt.jpg","","4"
"null","<div style=""font-size:60px;""> </div>","","fixation","html-keyboard-response","548","1201849","0.0-2.0-0.91","NVH","1","pretest","true","3715810","null","","",""
"null","../img/tt/1066tt.jpg","","mooney1","image-keyboard-response","549","1204854","0.0-2.0-1.91","NVH","1","pretest","true","3715810","null","../img/tt/1066tt.jpg","",""
"233","<p></p>","","recognized","html-keyboard-response","550","1205088","0.0-2.0-2.91","NVH","1","pretest","true","3715810","89","../img/tt/1066tt.jpg","y",""
"null","../img/gs/1066gs.jpg","","solution","image-keyboard-response","551","1207091","0.0-2.0-3.91","NVH","1","pretest","true","3715810","null","","",""
"null","../img/tt/1066tt.jpg","","mooney2","image-keyboard-response","552","1209093","0.0-2.0-4.91","NVH","1","pretest","true","3715810","null","","",""
"1346","<p>How strong was your <strong>aha-experience</strong>?</p>","","aha","html-keyboard-response","553","1210442","0.0-2.0-5.91","NVH","1","pretest","true","3715810","53","../img/tt/1066tt.jpg","","5"
"null","<div style=""font-size:60px;""> </div>","","fixation","html-keyboard-response","554","1210645","0.0-2.0-0.92","NVH","1","pretest","true","3715810","null","","",""
"null","../img/tt/001tt.jpg","","mooney1","image-keyboard-response","555","1213647","0.0-2.0-1.92","NVH","1","pretest","true","3715810","null","../img/tt/001tt.jpg","",""
"1339","<p></p>","","recognized","html-keyboard-response","556","1214987","0.0-2.0-2.92","NVH","1","pretest","true","3715810","78","../img/tt/001tt.jpg","n",""
"null","../img/gs/001gs.jpg","","solution","image-keyboard-response","557","1216991","0.0-2.0-3.92","NVH","1","pretest","true","3715810","null","","",""
"null","../img/tt/001tt.jpg","","mooney2","image-keyboard-response","558","1218992","0.0-2.0-4.92","NVH","1","pretest","true","3715810","null","","",""
"1226","<p>How strong was your <strong>aha-experience</strong>?</p>","","aha","html-keyboard-response","559","1220220","0.0-2.0-5.92","NVH","1","pretest","true","3715810","53","../img/tt/001tt.jpg","","5"
"null","<div style=""font-size:60px;""> </div>","","fixation","html-keyboard-response","560","1220422","0.0-2.0-0.93","NVH","1","pretest","true","3715810","null","","",""
"null","../img/tt/1101tt.jpg","","mooney1","image-keyboard-response","561","1223424","0.0-2.0-1.93","NVH","1","pretest","true","3715810","null","../img/tt/1101tt.jpg","",""
"346","<p></p>","","recognized","html-keyboard-response","562","1223772","0.0-2.0-2.93","NVH","1","pretest","true","3715810","78","../img/tt/1101tt.jpg","n",""
"null","../img/gs/1101gs.jpg","","solution","image-keyboard-response","563","1225775","0.0-2.0-3.93","NVH","1","pretest","true","3715810","null","","",""
"null","../img/tt/1101tt.jpg","","mooney2","image-keyboard-response","564","1227777","0.0-2.0-4.93","NVH","1","pretest","true","3715810","null","","",""
