"rt","stimulus","button_pressed","test_part","trial_type","trial_index","time_elapsed","internal_node_id","subject","session","experiment_name","complete","totalTime","key_press","currentStim","recognized","aha"
"5123","<div style='word-wrap: break-word; width: 900px'><h3>Please consider this information carefully before deciding whether to participate in this research</h3><ul style='text-align: left; font-size: .8em;'><li><b>Purpose of the research</b>: To examine how people process images.</li><li><b>What you will do in this research</b>:  Stimuli (images) will be presented on the computer and you will be asked different questions about them.</li><li><b>Time required</b>: Participation will take max 60 minutes to complete.</li><li><b>Risks</b>:  There are no anticipated risks associated with participating in this study. The effects of participating should be comparable to those you would experience from viewing a computer monitor for 60 minutes and using a mouse or keyboard.</li><li><b>Benefits</b>:  This study provides no benefits to you individually. The study provides important information about the nature of perception and learning.</li><li><b>Confidentiality</b>:  Your participation in this study will remain confidential. No personally identifiable information will be associated with your data. Your de-identified data may be shared with other researchers and used in future projects.</li><li><b>Participation and withdrawal</b>:  Your participation in this study is completely voluntary and you may refuse to participate or you may choose to withdraw at any time without penalty.</li><li><b>How to contact the researchers</b>: If you have questions or concerns about your participation or payment, or want to request a summary of research findings, please contact Sander Van de Cruys (KU Leuven), at sander.vandecruys@kuleuven.be.</li></ul><p>The nature and purpose of this research have been sufficiently explained and I agree to participate in this study.  I understand that I am free to withdraw at any time without incurring any penalty.</p><p>Please consent by clicking the button below to continue. Otherwise, please exit the study at this time.</p></div>","0","instructions","html-button-response","0","5125","0.0-0.0","NVH","2","pretest","true","3708153","","","",""
"24928","<div style='word-wrap: break-word; width: 900px'><h3>Instructions</h3><p>In this experiment you will see a series of distorted images like the one below on the left. As you can see in the righthand image, the distorted images are derived from actual photographs.In what follows, you will <strong>briefly</strong> be presented with <strong>only</strong> the distorted image.</p> <div style='float: left; margin-right: 20px;'><img src='../img/018tt.jpg' height='250' width='250'></img></div><div style='float: right; margin-left: 20px;'><img src='../img/018gs.jpg' height='250' width='250'></img></div><p>To be useful for future research, we need to select those images that people can generally not solve on their own. Therefore we'll show you the distorted image and ask you to indicate (yes or no) whether you already recognized what was in the image. This is not a competition, so please respond truthfully. We don't ask or check your answer, we just want to know whether you think you recognized it. All images depict objects from one of these broad level categories: animals, inanimate objects, plants, sports, vehicles, and food. Recognizing means knowing more than these broad labels for a given image. It means knowing at least the basic level category of the main object in the image, for example when you see a parrot in the image, 'parrot' will obviously be a correct answer but also correct is 'bird', but not 'animal' (the broad level category). For the example above, 'rose' would be correct or 'flower', but not 'plant'. When soccer players are depicted, you don't recognize the image when you just see 'humans', 'outdoors', or 'sports'. Note that complete certainty about your answer is not necessary, it's enough to have a good, definite guess on the object, to say 'yes, I recognized it'.</p><p>One additional question will be asked after we've revealed the solution: You'll be asked to indicate how strong your <strong>aha-experience</strong> was. This describes the positive 'click' you sometimes experience, when the pieces of the 'puzzle' fall together and you suddenly have 'insight' in the image. It describes how good you felt the 'fit' was between the distorted image and the solution.</p><p>Press any key to start.</p></div>","","instructions","html-keyboard-response","1","30055","0.0-1.0","NVH","2","pretest","true","3708153","13","","",""
"null","<div style=""font-size:60px;""> </div>","","fixation","html-keyboard-response","2","30257","0.0-2.0-0.0","NVH","2","pretest","true","3708153","null","","",""
"null","../img/tt/475tt.jpg","","mooney1","image-keyboard-response","3","33261","0.0-2.0-1.0","NVH","2","pretest","true","3708153","null","../img/tt/475tt.jpg","",""
"1863","<p></p>","","recognized","html-keyboard-response","4","35125","0.0-2.0-2.0","NVH","2","pretest","true","3708153","89","../img/tt/475tt.jpg","y",""
"null","../img/gs/475gs.jpg","","solution","image-keyboard-response","5","37128","0.0-2.0-3.0","NVH","2","pretest","true","3708153","null","","",""
"null","../img/tt/475tt.jpg","","mooney2","image-keyboard-response","6","39131","0.0-2.0-4.0","NVH","2","pretest","true","3708153","null","","",""
"4764","<p>How strong was your <strong>aha-experience</strong>?</p>","","aha","html-keyboard-response","7","43895","0.0-2.0-5.0","NVH","2","pretest","true","3708153","53","../img/tt/475tt.jpg","","5"
"null","<div style=""font-size:60px;""> </div>","","fixation","html-keyboard-response","8","44099","0.0-2.0-0.1","NVH","2","pretest","true","3708153","null","","",""
"null","../img/tt/569tt.jpg","","mooney1","image-keyboard-response","9","47101","0.0-2.0-1.1","NVH","2","pretest","true","3708153","null","../img/tt/569tt.jpg","",""
"553","<p></p>","","recognized","html-keyboard-response","10","47655","0.0-2.0-2.1","NVH","2","pretest","true","3708153","78","../img/tt/569tt.jpg","n",""
"null","../img/gs/569gs.jpg","","solution","image-keyboard-response","11","49657","0.0-2.0-3.1","NVH","2","pretest","true","3708153","null","","",""
"null","../img/tt/569tt.jpg","","mooney2","image-keyboard-response","12","51660","0.0-2.0-4.1","NVH","2","pretest","true","3708153","null","","",""
"2008","<p>How strong was your <strong>aha-experience</strong>?</p>","","aha","html-keyboard-response","13","53669","0.0-2.0-5.1","NVH","2","pretest","true","3708153","51","../img/tt/569tt.jpg","","3"
"null","<div style=""font-size:60px;""> </div>","","fixation","html-keyboard-response","14","53871","0.0-2.0-0.2","NVH","2","pretest","true","3708153","null","","",""
"null","../img/tt/512tt.jpg","","mooney1","image-keyboard-response","15","56874","0.0-2.0-1.2","NVH","2","pretest","true","3708153","null","../img/tt/512tt.jpg","",""
"596","<p></p>","","recognized","html-keyboard-response","16","57471","0.0-2.0-2.2","NVH","2","pretest","true","3708153","78","../img/tt/512tt.jpg","n",""
"null","../img/gs/512gs.jpg","","solution","image-keyboard-response","17","59473","0.0-2.0-3.2","NVH","2","pretest","true","3708153","null","","",""
"null","../img/tt/512tt.jpg","","mooney2","image-keyboard-response","18","61476","0.0-2.0-4.2","NVH","2","pretest","true","3708153","null","","",""
"418","<p>How strong was your <strong>aha-experience</strong>?</p>","","aha","html-keyboard-response","19","61895","0.0-2.0-5.2","NVH","2","pretest","true","3708153","50","../img/tt/512tt.jpg","","2"
"null","<div style=""font-size:60px;""> </div>","","fixation","html-keyboard-response","20","62097","0.0-2.0-0.3","NVH","2","pretest","true","3708153","null","","",""
"null","../img/tt/1326tt.jpg","","mooney1","image-keyboard-response","21","65099","0.0-2.0-1.3","NVH","2","pretest","true","3708153","null","../img/tt/1326tt.jpg","",""
"1194","<p></p>","","recognized","html-keyboard-response","22","66294","0.0-2.0-2.3","NVH","2","pretest","true","3708153","89","../img/tt/1326tt.jpg","y",""
"null","../img/gs/1326gs.jpg","","solution","image-keyboard-response","23","68295","0.0-2.0-3.3","NVH","2","pretest","true","3708153","null","","",""
"null","../img/tt/1326tt.jpg","","mooney2","image-keyboard-response","24","70297","0.0-2.0-4.3","NVH","2","pretest","true","3708153","null","","",""
"1037","<p>How strong was your <strong>aha-experience</strong>?</p>","","aha","html-keyboard-response","25","71335","0.0-2.0-5.3","NVH","2","pretest","true","3708153","53","../img/tt/1326tt.jpg","","5"
"null","<div style=""font-size:60px;""> </div>","","fixation","html-keyboard-response","26","71536","0.0-2.0-0.4","NVH","2","pretest","true","3708153","null","","",""
"null","../img/tt/1330tt.jpg","","mooney1","image-keyboard-response","27","74538","0.0-2.0-1.4","NVH","2","pretest","true","3708153","null","../img/tt/1330tt.jpg","",""
"228","<p></p>","","recognized","html-keyboard-response","28","74768","0.0-2.0-2.4","NVH","2","pretest","true","3708153","78","../img/tt/1330tt.jpg","n",""
"null","../img/gs/1330gs.jpg","","solution","image-keyboard-response","29","76770","0.0-2.0-3.4","NVH","2","pretest","true","3708153","null","","",""
"null","../img/tt/1330tt.jpg","","mooney2","image-keyboard-response","30","78773","0.0-2.0-4.4","NVH","2","pretest","true","3708153","null","","",""
"5937","<p>How strong was your <strong>aha-experience</strong>?</p>","","aha","html-keyboard-response","31","84711","0.0-2.0-5.4","NVH","2","pretest","true","3708153","53","../img/tt/1330tt.jpg","","5"
"null","<div style=""font-size:60px;""> </div>","","fixation","html-keyboard-response","32","84913","0.0-2.0-0.5","NVH","2","pretest","true","3708153","null","","",""
"null","../img/tt/532tt.jpg","","mooney1","image-keyboard-response","33","87916","0.0-2.0-1.5","NVH","2","pretest","true","3708153","null","../img/tt/532tt.jpg","",""
"468","<p></p>","","recognized","html-keyboard-response","34","88385","0.0-2.0-2.5","NVH","2","pretest","true","3708153","78","../img/tt/532tt.jpg","n",""
"null","../img/gs/532gs.jpg","","solution","image-keyboard-response","35","90385","0.0-2.0-3.5","NVH","2","pretest","true","3708153","null","","",""
"null","../img/tt/532tt.jpg","","mooney2","image-keyboard-response","36","92389","0.0-2.0-4.5","NVH","2","pretest","true","3708153","null","","",""
"3919","<p>How strong was your <strong>aha-experience</strong>?</p>","","aha","html-keyboard-response","37","96310","0.0-2.0-5.5","NVH","2","pretest","true","3708153","52","../img/tt/532tt.jpg","","4"
"null","<div style=""font-size:60px;""> </div>","","fixation","html-keyboard-response","38","96512","0.0-2.0-0.6","NVH","2","pretest","true","3708153","null","","",""
"null","../img/tt/553tt.jpg","","mooney1","image-keyboard-response","39","99514","0.0-2.0-1.6","NVH","2","pretest","true","3708153","null","../img/tt/553tt.jpg","",""
"132","<p></p>","","recognized","html-keyboard-response","40","99646","0.0-2.0-2.6","NVH","2","pretest","true","3708153","78","../img/tt/553tt.jpg","n",""
"null","../img/gs/553gs.jpg","","solution","image-keyboard-response","41","101649","0.0-2.0-3.6","NVH","2","pretest","true","3708153","null","","",""
"null","../img/tt/553tt.jpg","","mooney2","image-keyboard-response","42","103651","0.0-2.0-4.6","NVH","2","pretest","true","3708153","null","","",""
"4843","<p>How strong was your <strong>aha-experience</strong>?</p>","","aha","html-keyboard-response","43","108496","0.0-2.0-5.6","NVH","2","pretest","true","3708153","50","../img/tt/553tt.jpg","","2"
"null","<div style=""font-size:60px;""> </div>","","fixation","html-keyboard-response","44","108698","0.0-2.0-0.7","NVH","2","pretest","true","3708153","null","","",""
"null","../img/tt/529tt.jpg","","mooney1","image-keyboard-response","45","111701","0.0-2.0-1.7","NVH","2","pretest","true","3708153","null","../img/tt/529tt.jpg","",""
"105","<p></p>","","recognized","html-keyboard-response","46","111806","0.0-2.0-2.7","NVH","2","pretest","true","3708153","89","../img/tt/529tt.jpg","y",""
"null","../img/gs/529gs.jpg","","solution","image-keyboard-response","47","113808","0.0-2.0-3.7","NVH","2","pretest","true","3708153","null","","",""
"null","../img/tt/529tt.jpg","","mooney2","image-keyboard-response","48","115811","0.0-2.0-4.7","NVH","2","pretest","true","3708153","null","","",""
"74","<p>How strong was your <strong>aha-experience</strong>?</p>","","aha","html-keyboard-response","49","115885","0.0-2.0-5.7","NVH","2","pretest","true","3708153","53","../img/tt/529tt.jpg","","5"
"null","<div style=""font-size:60px;""> </div>","","fixation","html-keyboard-response","50","116086","0.0-2.0-0.8","NVH","2","pretest","true","3708153","null","","",""
"null","../img/tt/194tt.jpg","","mooney1","image-keyboard-response","51","119087","0.0-2.0-1.8","NVH","2","pretest","true","3708153","null","../img/tt/194tt.jpg","",""
"790","<p></p>","","recognized","html-keyboard-response","52","119878","0.0-2.0-2.8","NVH","2","pretest","true","3708153","78","../img/tt/194tt.jpg","n",""
"null","../img/gs/194gs.jpg","","solution","image-keyboard-response","53","121882","0.0-2.0-3.8","NVH","2","pretest","true","3708153","null","","",""
"null","../img/tt/194tt.jpg","","mooney2","image-keyboard-response","54","123883","0.0-2.0-4.8","NVH","2","pretest","true","3708153","null","","",""
"19","<p>How strong was your <strong>aha-experience</strong>?</p>","","aha","html-keyboard-response","55","123904","0.0-2.0-5.8","NVH","2","pretest","true","3708153","50","../img/tt/194tt.jpg","","2"
"null","<div style=""font-size:60px;""> </div>","","fixation","html-keyboard-response","56","124106","0.0-2.0-0.9","NVH","2","pretest","true","3708153","null","","",""
"null","../img/tt/300tt.jpg","","mooney1","image-keyboard-response","57","127108","0.0-2.0-1.9","NVH","2","pretest","true","3708153","null","../img/tt/300tt.jpg","",""
"633","<p></p>","","recognized","html-keyboard-response","58","127743","0.0-2.0-2.9","NVH","2","pretest","true","3708153","78","../img/tt/300tt.jpg","n",""
"null","../img/gs/300gs.jpg","","solution","image-keyboard-response","59","129745","0.0-2.0-3.9","NVH","2","pretest","true","3708153","null","","",""
"null","../img/tt/300tt.jpg","","mooney2","image-keyboard-response","60","131748","0.0-2.0-4.9","NVH","2","pretest","true","3708153","null","","",""
"1067","<p>How strong was your <strong>aha-experience</strong>?</p>","","aha","html-keyboard-response","61","132816","0.0-2.0-5.9","NVH","2","pretest","true","3708153","51","../img/tt/300tt.jpg","","3"
"null","<div style=""font-size:60px;""> </div>","","fixation","html-keyboard-response","62","133018","0.0-2.0-0.10","NVH","2","pretest","true","3708153","null","","",""
"null","../img/tt/563tt.jpg","","mooney1","image-keyboard-response","63","136020","0.0-2.0-1.10","NVH","2","pretest","true","3708153","null","../img/tt/563tt.jpg","",""
"148","<p></p>","","recognized","html-keyboard-response","64","136168","0.0-2.0-2.10","NVH","2","pretest","true","3708153","78","../img/tt/563tt.jpg","n",""
"null","../img/gs/563gs.jpg","","solution","image-keyboard-response","65","138170","0.0-2.0-3.10","NVH","2","pretest","true","3708153","null","","",""
"null","../img/tt/563tt.jpg","","mooney2","image-keyboard-response","66","140173","0.0-2.0-4.10","NVH","2","pretest","true","3708153","null","","",""
"275","<p>How strong was your <strong>aha-experience</strong>?</p>","","aha","html-keyboard-response","67","140449","0.0-2.0-5.10","NVH","2","pretest","true","3708153","50","../img/tt/563tt.jpg","","2"
"null","<div style=""font-size:60px;""> </div>","","fixation","html-keyboard-response","68","140650","0.0-2.0-0.11","NVH","2","pretest","true","3708153","null","","",""
"null","../img/tt/253tt.jpg","","mooney1","image-keyboard-response","69","143655","0.0-2.0-1.11","NVH","2","pretest","true","3708153","null","../img/tt/253tt.jpg","",""
"111","<p></p>","","recognized","html-keyboard-response","70","143767","0.0-2.0-2.11","NVH","2","pretest","true","3708153","78","../img/tt/253tt.jpg","n",""
"null","../img/gs/253gs.jpg","","solution","image-keyboard-response","71","145770","0.0-2.0-3.11","NVH","2","pretest","true","3708153","null","","",""
"null","../img/tt/253tt.jpg","","mooney2","image-keyboard-response","72","147772","0.0-2.0-4.11","NVH","2","pretest","true","3708153","null","","",""
"1202","<p>How strong was your <strong>aha-experience</strong>?</p>","","aha","html-keyboard-response","73","148976","0.0-2.0-5.11","NVH","2","pretest","true","3708153","51","../img/tt/253tt.jpg","","3"
"null","<div style=""font-size:60px;""> </div>","","fixation","html-keyboard-response","74","149177","0.0-2.0-0.12","NVH","2","pretest","true","3708153","null","","",""
"null","../img/tt/1341tt.jpg","","mooney1","image-keyboard-response","75","152177","0.0-2.0-1.12","NVH","2","pretest","true","3708153","null","../img/tt/1341tt.jpg","",""
"84","<p></p>","","recognized","html-keyboard-response","76","152262","0.0-2.0-2.12","NVH","2","pretest","true","3708153","89","../img/tt/1341tt.jpg","y",""
"null","../img/gs/1341gs.jpg","","solution","image-keyboard-response","77","154263","0.0-2.0-3.12","NVH","2","pretest","true","3708153","null","","",""
"null","../img/tt/1341tt.jpg","","mooney2","image-keyboard-response","78","156265","0.0-2.0-4.12","NVH","2","pretest","true","3708153","null","","",""
"405","<p>How strong was your <strong>aha-experience</strong>?</p>","","aha","html-keyboard-response","79","156670","0.0-2.0-5.12","NVH","2","pretest","true","3708153","53","../img/tt/1341tt.jpg","","5"
"null","<div style=""font-size:60px;""> </div>","","fixation","html-keyboard-response","80","156872","0.0-2.0-0.13","NVH","2","pretest","true","3708153","null","","",""
"null","../img/tt/420tt.jpg","","mooney1","image-keyboard-response","81","159874","0.0-2.0-1.13","NVH","2","pretest","true","3708153","null","../img/tt/420tt.jpg","",""
"452","<p></p>","","recognized","html-keyboard-response","82","160326","0.0-2.0-2.13","NVH","2","pretest","true","3708153","78","../img/tt/420tt.jpg","n",""
"null","../img/gs/420gs.jpg","","solution","image-keyboard-response","83","162328","0.0-2.0-3.13","NVH","2","pretest","true","3708153","null","","",""
"null","../img/tt/420tt.jpg","","mooney2","image-keyboard-response","84","164330","0.0-2.0-4.13","NVH","2","pretest","true","3708153","null","","",""
"1581","<p>How strong was your <strong>aha-experience</strong>?</p>","","aha","html-keyboard-response","85","165911","0.0-2.0-5.13","NVH","2","pretest","true","3708153","54","../img/tt/420tt.jpg","","6"
"null","<div style=""font-size:60px;""> </div>","","fixation","html-keyboard-response","86","166113","0.0-2.0-0.14","NVH","2","pretest","true","3708153","null","","",""
"null","../img/tt/244tt.jpg","","mooney1","image-keyboard-response","87","169118","0.0-2.0-1.14","NVH","2","pretest","true","3708153","null","../img/tt/244tt.jpg","",""
"287","<p></p>","","recognized","html-keyboard-response","88","169406","0.0-2.0-2.14","NVH","2","pretest","true","3708153","78","../img/tt/244tt.jpg","n",""
"null","../img/gs/244gs.jpg","","solution","image-keyboard-response","89","171409","0.0-2.0-3.14","NVH","2","pretest","true","3708153","null","","",""
"null","../img/tt/244tt.jpg","","mooney2","image-keyboard-response","90","173413","0.0-2.0-4.14","NVH","2","pretest","true","3708153","null","","",""
"449","<p>How strong was your <strong>aha-experience</strong>?</p>","","aha","html-keyboard-response","91","173863","0.0-2.0-5.14","NVH","2","pretest","true","3708153","49","../img/tt/244tt.jpg","","1"
"null","<div style=""font-size:60px;""> </div>","","fixation","html-keyboard-response","92","174064","0.0-2.0-0.15","NVH","2","pretest","true","3708153","null","","",""
"null","../img/tt/315tt.jpg","","mooney1","image-keyboard-response","93","177066","0.0-2.0-1.15","NVH","2","pretest","true","3708153","null","../img/tt/315tt.jpg","",""
"1189","<p></p>","","recognized","html-keyboard-response","94","178255","0.0-2.0-2.15","NVH","2","pretest","true","3708153","78","../img/tt/315tt.jpg","n",""
"null","../img/gs/315gs.jpg","","solution","image-keyboard-response","95","180258","0.0-2.0-3.15","NVH","2","pretest","true","3708153","null","","",""
"null","../img/tt/315tt.jpg","","mooney2","image-keyboard-response","96","182259","0.0-2.0-4.15","NVH","2","pretest","true","3708153","null","","",""
"2556","<p>How strong was your <strong>aha-experience</strong>?</p>","","aha","html-keyboard-response","97","184816","0.0-2.0-5.15","NVH","2","pretest","true","3708153","54","../img/tt/315tt.jpg","","6"
"null","<div style=""font-size:60px;""> </div>","","fixation","html-keyboard-response","98","185018","0.0-2.0-0.16","NVH","2","pretest","true","3708153","null","","",""
"null","../img/tt/439tt.jpg","","mooney1","image-keyboard-response","99","188020","0.0-2.0-1.16","NVH","2","pretest","true","3708153","null","../img/tt/439tt.jpg","",""
"348","<p></p>","","recognized","html-keyboard-response","100","188369","0.0-2.0-2.16","NVH","2","pretest","true","3708153","89","../img/tt/439tt.jpg","y",""
"null","../img/gs/439gs.jpg","","solution","image-keyboard-response","101","190371","0.0-2.0-3.16","NVH","2","pretest","true","3708153","null","","",""
"null","../img/tt/439tt.jpg","","mooney2","image-keyboard-response","102","192374","0.0-2.0-4.16","NVH","2","pretest","true","3708153","null","","",""
"45601","<p>How strong was your <strong>aha-experience</strong>?</p>","","aha","html-keyboard-response","103","237977","0.0-2.0-5.16","NVH","2","pretest","true","3708153","53","../img/tt/439tt.jpg","","5"
"null","<div style=""font-size:60px;""> </div>","","fixation","html-keyboard-response","104","238178","0.0-2.0-0.17","NVH","2","pretest","true","3708153","null","","",""
"null","../img/tt/579tt.jpg","","mooney1","image-keyboard-response","105","241182","0.0-2.0-1.17","NVH","2","pretest","true","3708153","null","../img/tt/579tt.jpg","",""
"297","<p></p>","","recognized","html-keyboard-response","106","241479","0.0-2.0-2.17","NVH","2","pretest","true","3708153","89","../img/tt/579tt.jpg","y",""
"null","../img/gs/579gs.jpg","","solution","image-keyboard-response","107","243481","0.0-2.0-3.17","NVH","2","pretest","true","3708153","null","","",""
"null","../img/tt/579tt.jpg","","mooney2","image-keyboard-response","108","245482","0.0-2.0-4.17","NVH","2","pretest","true","3708153","null","","",""
"868","<p>How strong was your <strong>aha-experience</strong>?</p>","","aha","html-keyboard-response","109","246351","0.0-2.0-5.17","NVH","2","pretest","true","3708153","50","../img/tt/579tt.jpg","","2"
"null","<div style=""font-size:60px;""> </div>","","fixation","html-keyboard-response","110","246553","0.0-2.0-0.18","NVH","2","pretest","true","3708153","null","","",""
"null","../img/tt/597tt.jpg","","mooney1","image-keyboard-response","111","249554","0.0-2.0-1.18","NVH","2","pretest","true","3708153","null","../img/tt/597tt.jpg","",""
"332","<p></p>","","recognized","html-keyboard-response","112","249887","0.0-2.0-2.18","NVH","2","pretest","true","3708153","78","../img/tt/597tt.jpg","n",""
"null","../img/gs/597gs.jpg","","solution","image-keyboard-response","113","251889","0.0-2.0-3.18","NVH","2","pretest","true","3708153","null","","",""
"null","../img/tt/597tt.jpg","","mooney2","image-keyboard-response","114","253891","0.0-2.0-4.18","NVH","2","pretest","true","3708153","null","","",""
"356","<p>How strong was your <strong>aha-experience</strong>?</p>","","aha","html-keyboard-response","115","254248","0.0-2.0-5.18","NVH","2","pretest","true","3708153","54","../img/tt/597tt.jpg","","6"
"null","<div style=""font-size:60px;""> </div>","","fixation","html-keyboard-response","116","254450","0.0-2.0-0.19","NVH","2","pretest","true","3708153","null","","",""
"null","../img/tt/278tt.jpg","","mooney1","image-keyboard-response","117","257454","0.0-2.0-1.19","NVH","2","pretest","true","3708153","null","../img/tt/278tt.jpg","",""
"369","<p></p>","","recognized","html-keyboard-response","118","257824","0.0-2.0-2.19","NVH","2","pretest","true","3708153","78","../img/tt/278tt.jpg","n",""
"null","../img/gs/278gs.jpg","","solution","image-keyboard-response","119","259825","0.0-2.0-3.19","NVH","2","pretest","true","3708153","null","","",""
"null","../img/tt/278tt.jpg","","mooney2","image-keyboard-response","120","261826","0.0-2.0-4.19","NVH","2","pretest","true","3708153","null","","",""
"541","<p>How strong was your <strong>aha-experience</strong>?</p>","","aha","html-keyboard-response","121","262369","0.0-2.0-5.19","NVH","2","pretest","true","3708153","50","../img/tt/278tt.jpg","","2"
"null","<div style=""font-size:60px;""> </div>","","fixation","html-keyboard-response","122","262570","0.0-2.0-0.20","NVH","2","pretest","true","3708153","null","","",""
"null","../img/tt/1320tt.jpg","","mooney1","image-keyboard-response","123","265572","0.0-2.0-1.20","NVH","2","pretest","true","3708153","null","../img/tt/1320tt.jpg","",""
"42","<p></p>","","recognized","html-keyboard-response","124","265615","0.0-2.0-2.20","NVH","2","pretest","true","3708153","89","../img/tt/1320tt.jpg","y",""
"null","../img/gs/1320gs.jpg","","solution","image-keyboard-response","125","267617","0.0-2.0-3.20","NVH","2","pretest","true","3708153","null","","",""
"null","../img/tt/1320tt.jpg","","mooney2","image-keyboard-response","126","269619","0.0-2.0-4.20","NVH","2","pretest","true","3708153","null","","",""
"380","<p>How strong was your <strong>aha-experience</strong>?</p>","","aha","html-keyboard-response","127","270001","0.0-2.0-5.20","NVH","2","pretest","true","3708153","54","../img/tt/1320tt.jpg","","6"
"null","<div style=""font-size:60px;""> </div>","","fixation","html-keyboard-response","128","270203","0.0-2.0-0.21","NVH","2","pretest","true","3708153","null","","",""
"null","../img/tt/221tt.jpg","","mooney1","image-keyboard-response","129","273205","0.0-2.0-1.21","NVH","2","pretest","true","3708153","null","../img/tt/221tt.jpg","",""
"171","<p></p>","","recognized","html-keyboard-response","130","273376","0.0-2.0-2.21","NVH","2","pretest","true","3708153","78","../img/tt/221tt.jpg","n",""
"null","../img/gs/221gs.jpg","","solution","image-keyboard-response","131","275378","0.0-2.0-3.21","NVH","2","pretest","true","3708153","null","","",""
"null","../img/tt/221tt.jpg","","mooney2","image-keyboard-response","132","277379","0.0-2.0-4.21","NVH","2","pretest","true","3708153","null","","",""
"1244","<p>How strong was your <strong>aha-experience</strong>?</p>","","aha","html-keyboard-response","133","278625","0.0-2.0-5.21","NVH","2","pretest","true","3708153","54","../img/tt/221tt.jpg","","6"
"null","<div style=""font-size:60px;""> </div>","","fixation","html-keyboard-response","134","278826","0.0-2.0-0.22","NVH","2","pretest","true","3708153","null","","",""
"null","../img/tt/160tt.jpg","","mooney1","image-keyboard-response","135","281828","0.0-2.0-1.22","NVH","2","pretest","true","3708153","null","../img/tt/160tt.jpg","",""
"364","<p></p>","","recognized","html-keyboard-response","136","282193","0.0-2.0-2.22","NVH","2","pretest","true","3708153","78","../img/tt/160tt.jpg","n",""
"null","../img/gs/160gs.jpg","","solution","image-keyboard-response","137","284195","0.0-2.0-3.22","NVH","2","pretest","true","3708153","null","","",""
"null","../img/tt/160tt.jpg","","mooney2","image-keyboard-response","138","286196","0.0-2.0-4.22","NVH","2","pretest","true","3708153","null","","",""
"2034","<p>How strong was your <strong>aha-experience</strong>?</p>","","aha","html-keyboard-response","139","288232","0.0-2.0-5.22","NVH","2","pretest","true","3708153","52","../img/tt/160tt.jpg","","4"
"null","<div style=""font-size:60px;""> </div>","","fixation","html-keyboard-response","140","288434","0.0-2.0-0.23","NVH","2","pretest","true","3708153","null","","",""
"null","../img/tt/187tt.jpg","","mooney1","image-keyboard-response","141","291437","0.0-2.0-1.23","NVH","2","pretest","true","3708153","null","../img/tt/187tt.jpg","",""
"58","<p></p>","","recognized","html-keyboard-response","142","291497","0.0-2.0-2.23","NVH","2","pretest","true","3708153","89","../img/tt/187tt.jpg","y",""
"null","../img/gs/187gs.jpg","","solution","image-keyboard-response","143","293498","0.0-2.0-3.23","NVH","2","pretest","true","3708153","null","","",""
"null","../img/tt/187tt.jpg","","mooney2","image-keyboard-response","144","295500","0.0-2.0-4.23","NVH","2","pretest","true","3708153","null","","",""
"957","<p>How strong was your <strong>aha-experience</strong>?</p>","","aha","html-keyboard-response","145","296458","0.0-2.0-5.23","NVH","2","pretest","true","3708153","53","../img/tt/187tt.jpg","","5"
"null","<div style=""font-size:60px;""> </div>","","fixation","html-keyboard-response","146","296659","0.0-2.0-0.24","NVH","2","pretest","true","3708153","null","","",""
"null","../img/tt/480tt.jpg","","mooney1","image-keyboard-response","147","299663","0.0-2.0-1.24","NVH","2","pretest","true","3708153","null","../img/tt/480tt.jpg","",""
"609","<p></p>","","recognized","html-keyboard-response","148","300272","0.0-2.0-2.24","NVH","2","pretest","true","3708153","89","../img/tt/480tt.jpg","y",""
"null","../img/gs/480gs.jpg","","solution","image-keyboard-response","149","302274","0.0-2.0-3.24","NVH","2","pretest","true","3708153","null","","",""
"null","../img/tt/480tt.jpg","","mooney2","image-keyboard-response","150","304277","0.0-2.0-4.24","NVH","2","pretest","true","3708153","null","","",""
"3660","<p>How strong was your <strong>aha-experience</strong>?</p>","","aha","html-keyboard-response","151","307939","0.0-2.0-5.24","NVH","2","pretest","true","3708153","53","../img/tt/480tt.jpg","","5"
"null","<div style=""font-size:60px;""> </div>","","fixation","html-keyboard-response","152","308141","0.0-2.0-0.25","NVH","2","pretest","true","3708153","null","","",""
"null","../img/tt/594tt.jpg","","mooney1","image-keyboard-response","153","311145","0.0-2.0-1.25","NVH","2","pretest","true","3708153","null","../img/tt/594tt.jpg","",""
"425","<p></p>","","recognized","html-keyboard-response","154","311571","0.0-2.0-2.25","NVH","2","pretest","true","3708153","78","../img/tt/594tt.jpg","n",""
"null","../img/gs/594gs.jpg","","solution","image-keyboard-response","155","313574","0.0-2.0-3.25","NVH","2","pretest","true","3708153","null","","",""
"null","../img/tt/594tt.jpg","","mooney2","image-keyboard-response","156","315577","0.0-2.0-4.25","NVH","2","pretest","true","3708153","null","","",""
"2999","<p>How strong was your <strong>aha-experience</strong>?</p>","","aha","html-keyboard-response","157","318577","0.0-2.0-5.25","NVH","2","pretest","true","3708153","50","../img/tt/594tt.jpg","","2"
"null","<div style=""font-size:60px;""> </div>","","fixation","html-keyboard-response","158","318778","0.0-2.0-0.26","NVH","2","pretest","true","3708153","null","","",""
"null","../img/tt/236tt.jpg","","mooney1","image-keyboard-response","159","321781","0.0-2.0-1.26","NVH","2","pretest","true","3708153","null","../img/tt/236tt.jpg","",""
"1229","<p></p>","","recognized","html-keyboard-response","160","323011","0.0-2.0-2.26","NVH","2","pretest","true","3708153","78","../img/tt/236tt.jpg","n",""
"null","../img/gs/236gs.jpg","","solution","image-keyboard-response","161","325013","0.0-2.0-3.26","NVH","2","pretest","true","3708153","null","","",""
"null","../img/tt/236tt.jpg","","mooney2","image-keyboard-response","162","327016","0.0-2.0-4.26","NVH","2","pretest","true","3708153","null","","",""
"2281","<p>How strong was your <strong>aha-experience</strong>?</p>","","aha","html-keyboard-response","163","329299","0.0-2.0-5.26","NVH","2","pretest","true","3708153","54","../img/tt/236tt.jpg","","6"
"null","<div style=""font-size:60px;""> </div>","","fixation","html-keyboard-response","164","329500","0.0-2.0-0.27","NVH","2","pretest","true","3708153","null","","",""
"null","../img/tt/489tt.jpg","","mooney1","image-keyboard-response","165","332503","0.0-2.0-1.27","NVH","2","pretest","true","3708153","null","../img/tt/489tt.jpg","",""
"282","<p></p>","","recognized","html-keyboard-response","166","332785","0.0-2.0-2.27","NVH","2","pretest","true","3708153","89","../img/tt/489tt.jpg","y",""
"null","../img/gs/489gs.jpg","","solution","image-keyboard-response","167","334790","0.0-2.0-3.27","NVH","2","pretest","true","3708153","null","","",""
"null","../img/tt/489tt.jpg","","mooney2","image-keyboard-response","168","336792","0.0-2.0-4.27","NVH","2","pretest","true","3708153","null","","",""
"4361","<p>How strong was your <strong>aha-experience</strong>?</p>","","aha","html-keyboard-response","169","341154","0.0-2.0-5.27","NVH","2","pretest","true","3708153","53","../img/tt/489tt.jpg","","5"
"null","<div style=""font-size:60px;""> </div>","","fixation","html-keyboard-response","170","341356","0.0-2.0-0.28","NVH","2","pretest","true","3708153","null","","",""
"null","../img/tt/550tt.jpg","","mooney1","image-keyboard-response","171","344358","0.0-2.0-1.28","NVH","2","pretest","true","3708153","null","../img/tt/550tt.jpg","",""
"1180","<p></p>","","recognized","html-keyboard-response","172","345538","0.0-2.0-2.28","NVH","2","pretest","true","3708153","78","../img/tt/550tt.jpg","n",""
"null","../img/gs/550gs.jpg","","solution","image-keyboard-response","173","347540","0.0-2.0-3.28","NVH","2","pretest","true","3708153","null","","",""
"null","../img/tt/550tt.jpg","","mooney2","image-keyboard-response","174","349542","0.0-2.0-4.28","NVH","2","pretest","true","3708153","null","","",""
"1299","<p>How strong was your <strong>aha-experience</strong>?</p>","","aha","html-keyboard-response","175","350843","0.0-2.0-5.28","NVH","2","pretest","true","3708153","50","../img/tt/550tt.jpg","","2"
"null","<div style=""font-size:60px;""> </div>","","fixation","html-keyboard-response","176","351044","0.0-2.0-0.29","NVH","2","pretest","true","3708153","null","","",""
"null","../img/tt/367tt.jpg","","mooney1","image-keyboard-response","177","354046","0.0-2.0-1.29","NVH","2","pretest","true","3708153","null","../img/tt/367tt.jpg","",""
"595","<p></p>","","recognized","html-keyboard-response","178","354643","0.0-2.0-2.29","NVH","2","pretest","true","3708153","89","../img/tt/367tt.jpg","y",""
"null","../img/gs/367gs.jpg","","solution","image-keyboard-response","179","356643","0.0-2.0-3.29","NVH","2","pretest","true","3708153","null","","",""
"null","../img/tt/367tt.jpg","","mooney2","image-keyboard-response","180","358646","0.0-2.0-4.29","NVH","2","pretest","true","3708153","null","","",""
"50","<p>How strong was your <strong>aha-experience</strong>?</p>","","aha","html-keyboard-response","181","358696","0.0-2.0-5.29","NVH","2","pretest","true","3708153","54","../img/tt/367tt.jpg","","6"
"null","<div style=""font-size:60px;""> </div>","","fixation","html-keyboard-response","182","358897","0.0-2.0-0.30","NVH","2","pretest","true","3708153","null","","",""
"null","../img/tt/1343tt.jpg","","mooney1","image-keyboard-response","183","361900","0.0-2.0-1.30","NVH","2","pretest","true","3708153","null","../img/tt/1343tt.jpg","",""
"333","<p></p>","","recognized","html-keyboard-response","184","362233","0.0-2.0-2.30","NVH","2","pretest","true","3708153","78","../img/tt/1343tt.jpg","n",""
"null","../img/gs/1343gs.jpg","","solution","image-keyboard-response","185","364236","0.0-2.0-3.30","NVH","2","pretest","true","3708153","null","","",""
"null","../img/tt/1343tt.jpg","","mooney2","image-keyboard-response","186","366238","0.0-2.0-4.30","NVH","2","pretest","true","3708153","null","","",""
"651","<p>How strong was your <strong>aha-experience</strong>?</p>","","aha","html-keyboard-response","187","366891","0.0-2.0-5.30","NVH","2","pretest","true","3708153","53","../img/tt/1343tt.jpg","","5"
"null","<div style=""font-size:60px;""> </div>","","fixation","html-keyboard-response","188","367092","0.0-2.0-0.31","NVH","2","pretest","true","3708153","null","","",""
"null","../img/tt/406tt.jpg","","mooney1","image-keyboard-response","189","370094","0.0-2.0-1.31","NVH","2","pretest","true","3708153","null","../img/tt/406tt.jpg","",""
"322","<p></p>","","recognized","html-keyboard-response","190","370418","0.0-2.0-2.31","NVH","2","pretest","true","3708153","78","../img/tt/406tt.jpg","n",""
"null","../img/gs/406gs.jpg","","solution","image-keyboard-response","191","372422","0.0-2.0-3.31","NVH","2","pretest","true","3708153","null","","",""
"null","../img/tt/406tt.jpg","","mooney2","image-keyboard-response","192","374424","0.0-2.0-4.31","NVH","2","pretest","true","3708153","null","","",""
"3104","<p>How strong was your <strong>aha-experience</strong>?</p>","","aha","html-keyboard-response","193","377530","0.0-2.0-5.31","NVH","2","pretest","true","3708153","54","../img/tt/406tt.jpg","","6"
"null","<div style=""font-size:60px;""> </div>","","fixation","html-keyboard-response","194","377732","0.0-2.0-0.32","NVH","2","pretest","true","3708153","null","","",""
"null","../img/tt/1362tt.jpg","","mooney1","image-keyboard-response","195","380735","0.0-2.0-1.32","NVH","2","pretest","true","3708153","null","../img/tt/1362tt.jpg","",""
"2242","<p></p>","","recognized","html-keyboard-response","196","382977","0.0-2.0-2.32","NVH","2","pretest","true","3708153","78","../img/tt/1362tt.jpg","n",""
"null","../img/gs/1362gs.jpg","","solution","image-keyboard-response","197","384980","0.0-2.0-3.32","NVH","2","pretest","true","3708153","null","","",""
"null","../img/tt/1362tt.jpg","","mooney2","image-keyboard-response","198","386983","0.0-2.0-4.32","NVH","2","pretest","true","3708153","null","","",""
"514","<p>How strong was your <strong>aha-experience</strong>?</p>","","aha","html-keyboard-response","199","387499","0.0-2.0-5.32","NVH","2","pretest","true","3708153","53","../img/tt/1362tt.jpg","","5"
"null","<div style=""font-size:60px;""> </div>","","fixation","html-keyboard-response","200","387700","0.0-2.0-0.33","NVH","2","pretest","true","3708153","null","","",""
"null","../img/tt/203tt.jpg","","mooney1","image-keyboard-response","201","390702","0.0-2.0-1.33","NVH","2","pretest","true","3708153","null","../img/tt/203tt.jpg","",""
"356","<p></p>","","recognized","html-keyboard-response","202","391058","0.0-2.0-2.33","NVH","2","pretest","true","3708153","78","../img/tt/203tt.jpg","n",""
"null","../img/gs/203gs.jpg","","solution","image-keyboard-response","203","393061","0.0-2.0-3.33","NVH","2","pretest","true","3708153","null","","",""
"null","../img/tt/203tt.jpg","","mooney2","image-keyboard-response","204","395064","0.0-2.0-4.33","NVH","2","pretest","true","3708153","null","","",""
"1257","<p>How strong was your <strong>aha-experience</strong>?</p>","","aha","html-keyboard-response","205","396321","0.0-2.0-5.33","NVH","2","pretest","true","3708153","50","../img/tt/203tt.jpg","","2"
"null","<div style=""font-size:60px;""> </div>","","fixation","html-keyboard-response","206","396523","0.0-2.0-0.34","NVH","2","pretest","true","3708153","null","","",""
"null","../img/tt/438tt.jpg","","mooney1","image-keyboard-response","207","399524","0.0-2.0-1.34","NVH","2","pretest","true","3708153","null","../img/tt/438tt.jpg","",""
"397","<p></p>","","recognized","html-keyboard-response","208","399923","0.0-2.0-2.34","NVH","2","pretest","true","3708153","89","../img/tt/438tt.jpg","y",""
"null","../img/gs/438gs.jpg","","solution","image-keyboard-response","209","401924","0.0-2.0-3.34","NVH","2","pretest","true","3708153","null","","",""
"null","../img/tt/438tt.jpg","","mooney2","image-keyboard-response","210","403927","0.0-2.0-4.34","NVH","2","pretest","true","3708153","null","","",""
"8468","<p>How strong was your <strong>aha-experience</strong>?</p>","","aha","html-keyboard-response","211","412395","0.0-2.0-5.34","NVH","2","pretest","true","3708153","53","../img/tt/438tt.jpg","","5"
"null","<div style=""font-size:60px;""> </div>","","fixation","html-keyboard-response","212","412597","0.0-2.0-0.35","NVH","2","pretest","true","3708153","null","","",""
"null","../img/tt/139tt.jpg","","mooney1","image-keyboard-response","213","415599","0.0-2.0-1.35","NVH","2","pretest","true","3708153","null","../img/tt/139tt.jpg","",""
"1051","<p></p>","","recognized","html-keyboard-response","214","416651","0.0-2.0-2.35","NVH","2","pretest","true","3708153","89","../img/tt/139tt.jpg","y",""
"null","../img/gs/139gs.jpg","","solution","image-keyboard-response","215","418653","0.0-2.0-3.35","NVH","2","pretest","true","3708153","null","","",""
"null","../img/tt/139tt.jpg","","mooney2","image-keyboard-response","216","420656","0.0-2.0-4.35","NVH","2","pretest","true","3708153","null","","",""
"2450","<p>How strong was your <strong>aha-experience</strong>?</p>","","aha","html-keyboard-response","217","423108","0.0-2.0-5.35","NVH","2","pretest","true","3708153","53","../img/tt/139tt.jpg","","5"
"null","<div style=""font-size:60px;""> </div>","","fixation","html-keyboard-response","218","423310","0.0-2.0-0.36","NVH","2","pretest","true","3708153","null","","",""
"null","../img/tt/1303tt.jpg","","mooney1","image-keyboard-response","219","426311","0.0-2.0-1.36","NVH","2","pretest","true","3708153","null","../img/tt/1303tt.jpg","",""
"187","<p></p>","","recognized","html-keyboard-response","220","426498","0.0-2.0-2.36","NVH","2","pretest","true","3708153","89","../img/tt/1303tt.jpg","y",""
"null","../img/gs/1303gs.jpg","","solution","image-keyboard-response","221","428500","0.0-2.0-3.36","NVH","2","pretest","true","3708153","null","","",""
"null","../img/tt/1303tt.jpg","","mooney2","image-keyboard-response","222","430502","0.0-2.0-4.36","NVH","2","pretest","true","3708153","null","","",""
"3283","<p>How strong was your <strong>aha-experience</strong>?</p>","","aha","html-keyboard-response","223","433788","0.0-2.0-5.36","NVH","2","pretest","true","3708153","53","../img/tt/1303tt.jpg","","5"
"null","<div style=""font-size:60px;""> </div>","","fixation","html-keyboard-response","224","433990","0.0-2.0-0.37","NVH","2","pretest","true","3708153","null","","",""
"null","../img/tt/1350tt.jpg","","mooney1","image-keyboard-response","225","436994","0.0-2.0-1.37","NVH","2","pretest","true","3708153","null","../img/tt/1350tt.jpg","",""
"1177","<p></p>","","recognized","html-keyboard-response","226","438172","0.0-2.0-2.37","NVH","2","pretest","true","3708153","78","../img/tt/1350tt.jpg","n",""
"null","../img/gs/1350gs.jpg","","solution","image-keyboard-response","227","440175","0.0-2.0-3.37","NVH","2","pretest","true","3708153","null","","",""
"null","../img/tt/1350tt.jpg","","mooney2","image-keyboard-response","228","442177","0.0-2.0-4.37","NVH","2","pretest","true","3708153","null","","",""
"2282","<p>How strong was your <strong>aha-experience</strong>?</p>","","aha","html-keyboard-response","229","444459","0.0-2.0-5.37","NVH","2","pretest","true","3708153","50","../img/tt/1350tt.jpg","","2"
"null","<div style=""font-size:60px;""> </div>","","fixation","html-keyboard-response","230","444660","0.0-2.0-0.38","NVH","2","pretest","true","3708153","null","","",""
"null","../img/tt/371tt.jpg","","mooney1","image-keyboard-response","231","447663","0.0-2.0-1.38","NVH","2","pretest","true","3708153","null","../img/tt/371tt.jpg","",""
"75","<p></p>","","recognized","html-keyboard-response","232","447740","0.0-2.0-2.38","NVH","2","pretest","true","3708153","89","../img/tt/371tt.jpg","y",""
"null","../img/gs/371gs.jpg","","solution","image-keyboard-response","233","449743","0.0-2.0-3.38","NVH","2","pretest","true","3708153","null","","",""
"null","../img/tt/371tt.jpg","","mooney2","image-keyboard-response","234","451745","0.0-2.0-4.38","NVH","2","pretest","true","3708153","null","","",""
"1634","<p>How strong was your <strong>aha-experience</strong>?</p>","","aha","html-keyboard-response","235","453380","0.0-2.0-5.38","NVH","2","pretest","true","3708153","51","../img/tt/371tt.jpg","","3"
"null","<div style=""font-size:60px;""> </div>","","fixation","html-keyboard-response","236","453581","0.0-2.0-0.39","NVH","2","pretest","true","3708153","null","","",""
"null","../img/tt/468tt.jpg","","mooney1","image-keyboard-response","237","456584","0.0-2.0-1.39","NVH","2","pretest","true","3708153","null","../img/tt/468tt.jpg","",""
"355","<p></p>","","recognized","html-keyboard-response","238","456940","0.0-2.0-2.39","NVH","2","pretest","true","3708153","78","../img/tt/468tt.jpg","n",""
"null","../img/gs/468gs.jpg","","solution","image-keyboard-response","239","458942","0.0-2.0-3.39","NVH","2","pretest","true","3708153","null","","",""
"null","../img/tt/468tt.jpg","","mooney2","image-keyboard-response","240","460944","0.0-2.0-4.39","NVH","2","pretest","true","3708153","null","","",""
"634","<p>How strong was your <strong>aha-experience</strong>?</p>","","aha","html-keyboard-response","241","461579","0.0-2.0-5.39","NVH","2","pretest","true","3708153","51","../img/tt/468tt.jpg","","3"
"null","<div style=""font-size:60px;""> </div>","","fixation","html-keyboard-response","242","461781","0.0-2.0-0.40","NVH","2","pretest","true","3708153","null","","",""
"null","../img/tt/465tt.jpg","","mooney1","image-keyboard-response","243","464782","0.0-2.0-1.40","NVH","2","pretest","true","3708153","null","../img/tt/465tt.jpg","",""
"293","<p></p>","","recognized","html-keyboard-response","244","465077","0.0-2.0-2.40","NVH","2","pretest","true","3708153","89","../img/tt/465tt.jpg","y",""
"null","../img/gs/465gs.jpg","","solution","image-keyboard-response","245","467080","0.0-2.0-3.40","NVH","2","pretest","true","3708153","null","","",""
"null","../img/tt/465tt.jpg","","mooney2","image-keyboard-response","246","469083","0.0-2.0-4.40","NVH","2","pretest","true","3708153","null","","",""
"31","<p>How strong was your <strong>aha-experience</strong>?</p>","","aha","html-keyboard-response","247","469115","0.0-2.0-5.40","NVH","2","pretest","true","3708153","53","../img/tt/465tt.jpg","","5"
"null","<div style=""font-size:60px;""> </div>","","fixation","html-keyboard-response","248","469317","0.0-2.0-0.41","NVH","2","pretest","true","3708153","null","","",""
"null","../img/tt/1374tt.jpg","","mooney1","image-keyboard-response","249","472319","0.0-2.0-1.41","NVH","2","pretest","true","3708153","null","../img/tt/1374tt.jpg","",""
"76","<p></p>","","recognized","html-keyboard-response","250","472396","0.0-2.0-2.41","NVH","2","pretest","true","3708153","89","../img/tt/1374tt.jpg","y",""
"null","../img/gs/1374gs.jpg","","solution","image-keyboard-response","251","474398","0.0-2.0-3.41","NVH","2","pretest","true","3708153","null","","",""
"null","../img/tt/1374tt.jpg","","mooney2","image-keyboard-response","252","476400","0.0-2.0-4.41","NVH","2","pretest","true","3708153","null","","",""
"251","<p>How strong was your <strong>aha-experience</strong>?</p>","","aha","html-keyboard-response","253","476652","0.0-2.0-5.41","NVH","2","pretest","true","3708153","50","../img/tt/1374tt.jpg","","2"
"null","<div style=""font-size:60px;""> </div>","","fixation","html-keyboard-response","254","476855","0.0-2.0-0.42","NVH","2","pretest","true","3708153","null","","",""
"null","../img/tt/290tt.jpg","","mooney1","image-keyboard-response","255","479860","0.0-2.0-1.42","NVH","2","pretest","true","3708153","null","../img/tt/290tt.jpg","",""
"1583","<p></p>","","recognized","html-keyboard-response","256","481445","0.0-2.0-2.42","NVH","2","pretest","true","3708153","78","../img/tt/290tt.jpg","n",""
"null","../img/gs/290gs.jpg","","solution","image-keyboard-response","257","483448","0.0-2.0-3.42","NVH","2","pretest","true","3708153","null","","",""
"null","../img/tt/290tt.jpg","","mooney2","image-keyboard-response","258","485449","0.0-2.0-4.42","NVH","2","pretest","true","3708153","null","","",""
"313","<p>How strong was your <strong>aha-experience</strong>?</p>","","aha","html-keyboard-response","259","485764","0.0-2.0-5.42","NVH","2","pretest","true","3708153","51","../img/tt/290tt.jpg","","3"
"null","<div style=""font-size:60px;""> </div>","","fixation","html-keyboard-response","260","485965","0.0-2.0-0.43","NVH","2","pretest","true","3708153","null","","",""
"null","../img/tt/197tt.jpg","","mooney1","image-keyboard-response","261","488966","0.0-2.0-1.43","NVH","2","pretest","true","3708153","null","../img/tt/197tt.jpg","",""
"149","<p></p>","","recognized","html-keyboard-response","262","489116","0.0-2.0-2.43","NVH","2","pretest","true","3708153","78","../img/tt/197tt.jpg","n",""
"null","../img/gs/197gs.jpg","","solution","image-keyboard-response","263","491118","0.0-2.0-3.43","NVH","2","pretest","true","3708153","null","","",""
"null","../img/tt/197tt.jpg","","mooney2","image-keyboard-response","264","493120","0.0-2.0-4.43","NVH","2","pretest","true","3708153","null","","",""
"163","<p>How strong was your <strong>aha-experience</strong>?</p>","","aha","html-keyboard-response","265","493284","0.0-2.0-5.43","NVH","2","pretest","true","3708153","53","../img/tt/197tt.jpg","","5"
"null","<div style=""font-size:60px;""> </div>","","fixation","html-keyboard-response","266","493486","0.0-2.0-0.44","NVH","2","pretest","true","3708153","null","","",""
"null","../img/tt/492tt.jpg","","mooney1","image-keyboard-response","267","496488","0.0-2.0-1.44","NVH","2","pretest","true","3708153","null","../img/tt/492tt.jpg","",""
"187","<p></p>","","recognized","html-keyboard-response","268","496676","0.0-2.0-2.44","NVH","2","pretest","true","3708153","89","../img/tt/492tt.jpg","y",""
"null","../img/gs/492gs.jpg","","solution","image-keyboard-response","269","498680","0.0-2.0-3.44","NVH","2","pretest","true","3708153","null","","",""
"null","../img/tt/492tt.jpg","","mooney2","image-keyboard-response","270","500682","0.0-2.0-4.44","NVH","2","pretest","true","3708153","null","","",""
"616","<p>How strong was your <strong>aha-experience</strong>?</p>","","aha","html-keyboard-response","271","501299","0.0-2.0-5.44","NVH","2","pretest","true","3708153","53","../img/tt/492tt.jpg","","5"
"null","<div style=""font-size:60px;""> </div>","","fixation","html-keyboard-response","272","501501","0.0-2.0-0.45","NVH","2","pretest","true","3708153","null","","",""
"null","../img/tt/208tt.jpg","","mooney1","image-keyboard-response","273","504503","0.0-2.0-1.45","NVH","2","pretest","true","3708153","null","../img/tt/208tt.jpg","",""
"51","<p></p>","","recognized","html-keyboard-response","274","504555","0.0-2.0-2.45","NVH","2","pretest","true","3708153","89","../img/tt/208tt.jpg","y",""
"null","../img/gs/208gs.jpg","","solution","image-keyboard-response","275","506557","0.0-2.0-3.45","NVH","2","pretest","true","3708153","null","","",""
"null","../img/tt/208tt.jpg","","mooney2","image-keyboard-response","276","508558","0.0-2.0-4.45","NVH","2","pretest","true","3708153","null","","",""
"157","<p>How strong was your <strong>aha-experience</strong>?</p>","","aha","html-keyboard-response","277","508717","0.0-2.0-5.45","NVH","2","pretest","true","3708153","53","../img/tt/208tt.jpg","","5"
"null","<div style=""font-size:60px;""> </div>","","fixation","html-keyboard-response","278","508919","0.0-2.0-0.46","NVH","2","pretest","true","3708153","null","","",""
"null","../img/tt/381tt.jpg","","mooney1","image-keyboard-response","279","511922","0.0-2.0-1.46","NVH","2","pretest","true","3708153","null","../img/tt/381tt.jpg","",""
"137","<p></p>","","recognized","html-keyboard-response","280","512060","0.0-2.0-2.46","NVH","2","pretest","true","3708153","89","../img/tt/381tt.jpg","y",""
"null","../img/gs/381gs.jpg","","solution","image-keyboard-response","281","514062","0.0-2.0-3.46","NVH","2","pretest","true","3708153","null","","",""
"null","../img/tt/381tt.jpg","","mooney2","image-keyboard-response","282","516065","0.0-2.0-4.46","NVH","2","pretest","true","3708153","null","","",""
"932","<p>How strong was your <strong>aha-experience</strong>?</p>","","aha","html-keyboard-response","283","516997","0.0-2.0-5.46","NVH","2","pretest","true","3708153","52","../img/tt/381tt.jpg","","4"
"null","<div style=""font-size:60px;""> </div>","","fixation","html-keyboard-response","284","517199","0.0-2.0-0.47","NVH","2","pretest","true","3708153","null","","",""
"null","../img/tt/336tt.jpg","","mooney1","image-keyboard-response","285","520203","0.0-2.0-1.47","NVH","2","pretest","true","3708153","null","../img/tt/336tt.jpg","",""
"82","<p></p>","","recognized","html-keyboard-response","286","520285","0.0-2.0-2.47","NVH","2","pretest","true","3708153","89","../img/tt/336tt.jpg","y",""
"null","../img/gs/336gs.jpg","","solution","image-keyboard-response","287","522287","0.0-2.0-3.47","NVH","2","pretest","true","3708153","null","","",""
"null","../img/tt/336tt.jpg","","mooney2","image-keyboard-response","288","524289","0.0-2.0-4.47","NVH","2","pretest","true","3708153","null","","",""
"2276","<p>How strong was your <strong>aha-experience</strong>?</p>","","aha","html-keyboard-response","289","526566","0.0-2.0-5.47","NVH","2","pretest","true","3708153","52","../img/tt/336tt.jpg","","4"
"null","<div style=""font-size:60px;""> </div>","","fixation","html-keyboard-response","290","526767","0.0-2.0-0.48","NVH","2","pretest","true","3708153","null","","",""
"null","../img/tt/519tt.jpg","","mooney1","image-keyboard-response","291","529770","0.0-2.0-1.48","NVH","2","pretest","true","3708153","null","../img/tt/519tt.jpg","",""
"1546","<p></p>","","recognized","html-keyboard-response","292","531317","0.0-2.0-2.48","NVH","2","pretest","true","3708153","89","../img/tt/519tt.jpg","y",""
"null","../img/gs/519gs.jpg","","solution","image-keyboard-response","293","533319","0.0-2.0-3.48","NVH","2","pretest","true","3708153","null","","",""
"null","../img/tt/519tt.jpg","","mooney2","image-keyboard-response","294","535321","0.0-2.0-4.48","NVH","2","pretest","true","3708153","null","","",""
"3412","<p>How strong was your <strong>aha-experience</strong>?</p>","","aha","html-keyboard-response","295","538734","0.0-2.0-5.48","NVH","2","pretest","true","3708153","52","../img/tt/519tt.jpg","","4"
"null","<div style=""font-size:60px;""> </div>","","fixation","html-keyboard-response","296","538936","0.0-2.0-0.49","NVH","2","pretest","true","3708153","null","","",""
"null","../img/tt/333tt.jpg","","mooney1","image-keyboard-response","297","541938","0.0-2.0-1.49","NVH","2","pretest","true","3708153","null","../img/tt/333tt.jpg","",""
"249","<p></p>","","recognized","html-keyboard-response","298","542188","0.0-2.0-2.49","NVH","2","pretest","true","3708153","78","../img/tt/333tt.jpg","n",""
"null","../img/gs/333gs.jpg","","solution","image-keyboard-response","299","544190","0.0-2.0-3.49","NVH","2","pretest","true","3708153","null","","",""
"null","../img/tt/333tt.jpg","","mooney2","image-keyboard-response","300","546193","0.0-2.0-4.49","NVH","2","pretest","true","3708153","null","","",""
"627","<p>How strong was your <strong>aha-experience</strong>?</p>","","aha","html-keyboard-response","301","546821","0.0-2.0-5.49","NVH","2","pretest","true","3708153","50","../img/tt/333tt.jpg","","2"
"null","<div style=""font-size:60px;""> </div>","","fixation","html-keyboard-response","302","547023","0.0-2.0-0.50","NVH","2","pretest","true","3708153","null","","",""
"null","../img/tt/297tt.jpg","","mooney1","image-keyboard-response","303","550025","0.0-2.0-1.50","NVH","2","pretest","true","3708153","null","../img/tt/297tt.jpg","",""
"75","<p></p>","","recognized","html-keyboard-response","304","550101","0.0-2.0-2.50","NVH","2","pretest","true","3708153","89","../img/tt/297tt.jpg","y",""
"null","../img/gs/297gs.jpg","","solution","image-keyboard-response","305","552103","0.0-2.0-3.50","NVH","2","pretest","true","3708153","null","","",""
"null","../img/tt/297tt.jpg","","mooney2","image-keyboard-response","306","554107","0.0-2.0-4.50","NVH","2","pretest","true","3708153","null","","",""
"2538","<p>How strong was your <strong>aha-experience</strong>?</p>","","aha","html-keyboard-response","307","556646","0.0-2.0-5.50","NVH","2","pretest","true","3708153","53","../img/tt/297tt.jpg","","5"
"null","<div style=""font-size:60px;""> </div>","","fixation","html-keyboard-response","308","556849","0.0-2.0-0.51","NVH","2","pretest","true","3708153","null","","",""
"null","../img/tt/440tt.jpg","","mooney1","image-keyboard-response","309","559853","0.0-2.0-1.51","NVH","2","pretest","true","3708153","null","../img/tt/440tt.jpg","",""
"1055","<p></p>","","recognized","html-keyboard-response","310","560909","0.0-2.0-2.51","NVH","2","pretest","true","3708153","78","../img/tt/440tt.jpg","n",""
"null","../img/gs/440gs.jpg","","solution","image-keyboard-response","311","562910","0.0-2.0-3.51","NVH","2","pretest","true","3708153","null","","",""
"null","../img/tt/440tt.jpg","","mooney2","image-keyboard-response","312","564912","0.0-2.0-4.51","NVH","2","pretest","true","3708153","null","","",""
"2966","<p>How strong was your <strong>aha-experience</strong>?</p>","","aha","html-keyboard-response","313","567878","0.0-2.0-5.51","NVH","2","pretest","true","3708153","52","../img/tt/440tt.jpg","","4"
"null","<div style=""font-size:60px;""> </div>","","fixation","html-keyboard-response","314","568079","0.0-2.0-0.52","NVH","2","pretest","true","3708153","null","","",""
"null","../img/tt/348tt.jpg","","mooney1","image-keyboard-response","315","571082","0.0-2.0-1.52","NVH","2","pretest","true","3708153","null","../img/tt/348tt.jpg","",""
"50","<p></p>","","recognized","html-keyboard-response","316","571133","0.0-2.0-2.52","NVH","2","pretest","true","3708153","89","../img/tt/348tt.jpg","y",""
"null","../img/gs/348gs.jpg","","solution","image-keyboard-response","317","573136","0.0-2.0-3.52","NVH","2","pretest","true","3708153","null","","",""
"null","../img/tt/348tt.jpg","","mooney2","image-keyboard-response","318","575138","0.0-2.0-4.52","NVH","2","pretest","true","3708153","null","","",""
"17525","<p>How strong was your <strong>aha-experience</strong>?</p>","","aha","html-keyboard-response","319","592664","0.0-2.0-5.52","NVH","2","pretest","true","3708153","52","../img/tt/348tt.jpg","","4"
"null","<div style=""font-size:60px;""> </div>","","fixation","html-keyboard-response","320","592865","0.0-2.0-0.53","NVH","2","pretest","true","3708153","null","","",""
"null","../img/tt/593tt.jpg","","mooney1","image-keyboard-response","321","595868","0.0-2.0-1.53","NVH","2","pretest","true","3708153","null","../img/tt/593tt.jpg","",""
"19312","<p></p>","","recognized","html-keyboard-response","322","615182","0.0-2.0-2.53","NVH","2","pretest","true","3708153","89","../img/tt/593tt.jpg","y",""
"null","../img/gs/593gs.jpg","","solution","image-keyboard-response","323","617184","0.0-2.0-3.53","NVH","2","pretest","true","3708153","null","","",""
"null","../img/tt/593tt.jpg","","mooney2","image-keyboard-response","324","619187","0.0-2.0-4.53","NVH","2","pretest","true","3708153","null","","",""
"1531","<p>How strong was your <strong>aha-experience</strong>?</p>","","aha","html-keyboard-response","325","620719","0.0-2.0-5.53","NVH","2","pretest","true","3708153","53","../img/tt/593tt.jpg","","5"
"null","<div style=""font-size:60px;""> </div>","","fixation","html-keyboard-response","326","620920","0.0-2.0-0.54","NVH","2","pretest","true","3708153","null","","",""
"null","../img/tt/595tt.jpg","","mooney1","image-keyboard-response","327","623922","0.0-2.0-1.54","NVH","2","pretest","true","3708153","null","../img/tt/595tt.jpg","",""
"355","<p></p>","","recognized","html-keyboard-response","328","624278","0.0-2.0-2.54","NVH","2","pretest","true","3708153","89","../img/tt/595tt.jpg","y",""
"null","../img/gs/595gs.jpg","","solution","image-keyboard-response","329","626280","0.0-2.0-3.54","NVH","2","pretest","true","3708153","null","","",""
"null","../img/tt/595tt.jpg","","mooney2","image-keyboard-response","330","628282","0.0-2.0-4.54","NVH","2","pretest","true","3708153","null","","",""
"5211","<p>How strong was your <strong>aha-experience</strong>?</p>","","aha","html-keyboard-response","331","633494","0.0-2.0-5.54","NVH","2","pretest","true","3708153","52","../img/tt/595tt.jpg","","4"
"null","<div style=""font-size:60px;""> </div>","","fixation","html-keyboard-response","332","633696","0.0-2.0-0.55","NVH","2","pretest","true","3708153","null","","",""
"null","../img/tt/426tt.jpg","","mooney1","image-keyboard-response","333","636698","0.0-2.0-1.55","NVH","2","pretest","true","3708153","null","../img/tt/426tt.jpg","",""
"220","<p></p>","","recognized","html-keyboard-response","334","636920","0.0-2.0-2.55","NVH","2","pretest","true","3708153","78","../img/tt/426tt.jpg","n",""
"null","../img/gs/426gs.jpg","","solution","image-keyboard-response","335","638922","0.0-2.0-3.55","NVH","2","pretest","true","3708153","null","","",""
"null","../img/tt/426tt.jpg","","mooney2","image-keyboard-response","336","640925","0.0-2.0-4.55","NVH","2","pretest","true","3708153","null","","",""
"1859","<p>How strong was your <strong>aha-experience</strong>?</p>","","aha","html-keyboard-response","337","642784","0.0-2.0-5.55","NVH","2","pretest","true","3708153","50","../img/tt/426tt.jpg","","2"
"null","<div style=""font-size:60px;""> </div>","","fixation","html-keyboard-response","338","642985","0.0-2.0-0.56","NVH","2","pretest","true","3708153","null","","",""
"null","../img/tt/178tt.jpg","","mooney1","image-keyboard-response","339","645986","0.0-2.0-1.56","NVH","2","pretest","true","3708153","null","../img/tt/178tt.jpg","",""
"373","<p></p>","","recognized","html-keyboard-response","340","646360","0.0-2.0-2.56","NVH","2","pretest","true","3708153","89","../img/tt/178tt.jpg","y",""
"null","../img/gs/178gs.jpg","","solution","image-keyboard-response","341","648362","0.0-2.0-3.56","NVH","2","pretest","true","3708153","null","","",""
"null","../img/tt/178tt.jpg","","mooney2","image-keyboard-response","342","650366","0.0-2.0-4.56","NVH","2","pretest","true","3708153","null","","",""
"1858","<p>How strong was your <strong>aha-experience</strong>?</p>","","aha","html-keyboard-response","343","652224","0.0-2.0-5.56","NVH","2","pretest","true","3708153","53","../img/tt/178tt.jpg","","5"
"null","<div style=""font-size:60px;""> </div>","","fixation","html-keyboard-response","344","652425","0.0-2.0-0.57","NVH","2","pretest","true","3708153","null","","",""
"null","../img/tt/1366tt.jpg","","mooney1","image-keyboard-response","345","655427","0.0-2.0-1.57","NVH","2","pretest","true","3708153","null","../img/tt/1366tt.jpg","",""
"348","<p></p>","","recognized","html-keyboard-response","346","655775","0.0-2.0-2.57","NVH","2","pretest","true","3708153","78","../img/tt/1366tt.jpg","n",""
"null","../img/gs/1366gs.jpg","","solution","image-keyboard-response","347","657777","0.0-2.0-3.57","NVH","2","pretest","true","3708153","null","","",""
"null","../img/tt/1366tt.jpg","","mooney2","image-keyboard-response","348","659779","0.0-2.0-4.57","NVH","2","pretest","true","3708153","null","","",""
"1165","<p>How strong was your <strong>aha-experience</strong>?</p>","","aha","html-keyboard-response","349","660944","0.0-2.0-5.57","NVH","2","pretest","true","3708153","51","../img/tt/1366tt.jpg","","3"
"null","<div style=""font-size:60px;""> </div>","","fixation","html-keyboard-response","350","661146","0.0-2.0-0.58","NVH","2","pretest","true","3708153","null","","",""
"null","../img/tt/346tt.jpg","","mooney1","image-keyboard-response","351","664147","0.0-2.0-1.58","NVH","2","pretest","true","3708153","null","../img/tt/346tt.jpg","",""
"564","<p></p>","","recognized","html-keyboard-response","352","664713","0.0-2.0-2.58","NVH","2","pretest","true","3708153","78","../img/tt/346tt.jpg","n",""
"null","../img/gs/346gs.jpg","","solution","image-keyboard-response","353","666715","0.0-2.0-3.58","NVH","2","pretest","true","3708153","null","","",""
"null","../img/tt/346tt.jpg","","mooney2","image-keyboard-response","354","668718","0.0-2.0-4.58","NVH","2","pretest","true","3708153","null","","",""
"913","<p>How strong was your <strong>aha-experience</strong>?</p>","","aha","html-keyboard-response","355","669631","0.0-2.0-5.58","NVH","2","pretest","true","3708153","50","../img/tt/346tt.jpg","","2"
"null","<div style=""font-size:60px;""> </div>","","fixation","html-keyboard-response","356","669833","0.0-2.0-0.59","NVH","2","pretest","true","3708153","null","","",""
"null","../img/tt/283tt.jpg","","mooney1","image-keyboard-response","357","672837","0.0-2.0-1.59","NVH","2","pretest","true","3708153","null","../img/tt/283tt.jpg","",""
"307","<p></p>","","recognized","html-keyboard-response","358","673144","0.0-2.0-2.59","NVH","2","pretest","true","3708153","89","../img/tt/283tt.jpg","y",""
"null","../img/gs/283gs.jpg","","solution","image-keyboard-response","359","675145","0.0-2.0-3.59","NVH","2","pretest","true","3708153","null","","",""
"null","../img/tt/283tt.jpg","","mooney2","image-keyboard-response","360","677146","0.0-2.0-4.59","NVH","2","pretest","true","3708153","null","","",""
"203","<p>How strong was your <strong>aha-experience</strong>?</p>","","aha","html-keyboard-response","361","677350","0.0-2.0-5.59","NVH","2","pretest","true","3708153","49","../img/tt/283tt.jpg","","1"
"null","<div style=""font-size:60px;""> </div>","","fixation","html-keyboard-response","362","677552","0.0-2.0-0.60","NVH","2","pretest","true","3708153","null","","",""
"null","../img/tt/590tt.jpg","","mooney1","image-keyboard-response","363","680553","0.0-2.0-1.60","NVH","2","pretest","true","3708153","null","../img/tt/590tt.jpg","",""
"461","<p></p>","","recognized","html-keyboard-response","364","681014","0.0-2.0-2.60","NVH","2","pretest","true","3708153","78","../img/tt/590tt.jpg","n",""
"null","../img/gs/590gs.jpg","","solution","image-keyboard-response","365","683016","0.0-2.0-3.60","NVH","2","pretest","true","3708153","null","","",""
"null","../img/tt/590tt.jpg","","mooney2","image-keyboard-response","366","685017","0.0-2.0-4.60","NVH","2","pretest","true","3708153","null","","",""
"1565","<p>How strong was your <strong>aha-experience</strong>?</p>","","aha","html-keyboard-response","367","686583","0.0-2.0-5.60","NVH","2","pretest","true","3708153","51","../img/tt/590tt.jpg","","3"
"null","<div style=""font-size:60px;""> </div>","","fixation","html-keyboard-response","368","686785","0.0-2.0-0.61","NVH","2","pretest","true","3708153","null","","",""
"null","../img/tt/1365tt.jpg","","mooney1","image-keyboard-response","369","689787","0.0-2.0-1.61","NVH","2","pretest","true","3708153","null","../img/tt/1365tt.jpg","",""
"972","<p></p>","","recognized","html-keyboard-response","370","690760","0.0-2.0-2.61","NVH","2","pretest","true","3708153","78","../img/tt/1365tt.jpg","n",""
"null","../img/gs/1365gs.jpg","","solution","image-keyboard-response","371","692761","0.0-2.0-3.61","NVH","2","pretest","true","3708153","null","","",""
"null","../img/tt/1365tt.jpg","","mooney2","image-keyboard-response","372","694762","0.0-2.0-4.61","NVH","2","pretest","true","3708153","null","","",""
"2187","<p>How strong was your <strong>aha-experience</strong>?</p>","","aha","html-keyboard-response","373","696951","0.0-2.0-5.61","NVH","2","pretest","true","3708153","50","../img/tt/1365tt.jpg","","2"
"null","<div style=""font-size:60px;""> </div>","","fixation","html-keyboard-response","374","697152","0.0-2.0-0.62","NVH","2","pretest","true","3708153","null","","",""
"null","../img/tt/436tt.jpg","","mooney1","image-keyboard-response","375","700155","0.0-2.0-1.62","NVH","2","pretest","true","3708153","null","../img/tt/436tt.jpg","",""
"418","<p></p>","","recognized","html-keyboard-response","376","700574","0.0-2.0-2.62","NVH","2","pretest","true","3708153","78","../img/tt/436tt.jpg","n",""
"null","../img/gs/436gs.jpg","","solution","image-keyboard-response","377","702576","0.0-2.0-3.62","NVH","2","pretest","true","3708153","null","","",""
"null","../img/tt/436tt.jpg","","mooney2","image-keyboard-response","378","704577","0.0-2.0-4.62","NVH","2","pretest","true","3708153","null","","",""
"2126","<p>How strong was your <strong>aha-experience</strong>?</p>","","aha","html-keyboard-response","379","706705","0.0-2.0-5.62","NVH","2","pretest","true","3708153","51","../img/tt/436tt.jpg","","3"
"null","<div style=""font-size:60px;""> </div>","","fixation","html-keyboard-response","380","706907","0.0-2.0-0.63","NVH","2","pretest","true","3708153","null","","",""
"null","../img/tt/456tt.jpg","","mooney1","image-keyboard-response","381","709909","0.0-2.0-1.63","NVH","2","pretest","true","3708153","null","../img/tt/456tt.jpg","",""
"226","<p></p>","","recognized","html-keyboard-response","382","710136","0.0-2.0-2.63","NVH","2","pretest","true","3708153","78","../img/tt/456tt.jpg","n",""
"null","../img/gs/456gs.jpg","","solution","image-keyboard-response","383","712138","0.0-2.0-3.63","NVH","2","pretest","true","3708153","null","","",""
"null","../img/tt/456tt.jpg","","mooney2","image-keyboard-response","384","714141","0.0-2.0-4.63","NVH","2","pretest","true","3708153","null","","",""
"2068","<p>How strong was your <strong>aha-experience</strong>?</p>","","aha","html-keyboard-response","385","716209","0.0-2.0-5.63","NVH","2","pretest","true","3708153","53","../img/tt/456tt.jpg","","5"
"null","<div style=""font-size:60px;""> </div>","","fixation","html-keyboard-response","386","716411","0.0-2.0-0.64","NVH","2","pretest","true","3708153","null","","",""
"null","../img/tt/140tt.jpg","","mooney1","image-keyboard-response","387","719413","0.0-2.0-1.64","NVH","2","pretest","true","3708153","null","../img/tt/140tt.jpg","",""
"403","<p></p>","","recognized","html-keyboard-response","388","719816","0.0-2.0-2.64","NVH","2","pretest","true","3708153","89","../img/tt/140tt.jpg","y",""
"null","../img/gs/140gs.jpg","","solution","image-keyboard-response","389","721819","0.0-2.0-3.64","NVH","2","pretest","true","3708153","null","","",""
"null","../img/tt/140tt.jpg","","mooney2","image-keyboard-response","390","723821","0.0-2.0-4.64","NVH","2","pretest","true","3708153","null","","",""
"2034","<p>How strong was your <strong>aha-experience</strong>?</p>","","aha","html-keyboard-response","391","725857","0.0-2.0-5.64","NVH","2","pretest","true","3708153","52","../img/tt/140tt.jpg","","4"
"null","<div style=""font-size:60px;""> </div>","","fixation","html-keyboard-response","392","726058","0.0-2.0-0.65","NVH","2","pretest","true","3708153","null","","",""
"null","../img/tt/189tt.jpg","","mooney1","image-keyboard-response","393","729061","0.0-2.0-1.65","NVH","2","pretest","true","3708153","null","../img/tt/189tt.jpg","",""
"1355","<p></p>","","recognized","html-keyboard-response","394","730417","0.0-2.0-2.65","NVH","2","pretest","true","3708153","89","../img/tt/189tt.jpg","y",""
"null","../img/gs/189gs.jpg","","solution","image-keyboard-response","395","732419","0.0-2.0-3.65","NVH","2","pretest","true","3708153","null","","",""
"null","../img/tt/189tt.jpg","","mooney2","image-keyboard-response","396","734421","0.0-2.0-4.65","NVH","2","pretest","true","3708153","null","","",""
"243","<p>How strong was your <strong>aha-experience</strong>?</p>","","aha","html-keyboard-response","397","734665","0.0-2.0-5.65","NVH","2","pretest","true","3708153","52","../img/tt/189tt.jpg","","4"
"null","<div style=""font-size:60px;""> </div>","","fixation","html-keyboard-response","398","734866","0.0-2.0-0.66","NVH","2","pretest","true","3708153","null","","",""
"null","../img/tt/129tt.jpg","","mooney1","image-keyboard-response","399","737866","0.0-2.0-1.66","NVH","2","pretest","true","3708153","null","../img/tt/129tt.jpg","",""
"133","<p></p>","","recognized","html-keyboard-response","400","738001","0.0-2.0-2.66","NVH","2","pretest","true","3708153","89","../img/tt/129tt.jpg","y",""
"null","../img/gs/129gs.jpg","","solution","image-keyboard-response","401","740003","0.0-2.0-3.66","NVH","2","pretest","true","3708153","null","","",""
"null","../img/tt/129tt.jpg","","mooney2","image-keyboard-response","402","742004","0.0-2.0-4.66","NVH","2","pretest","true","3708153","null","","",""
"1668","<p>How strong was your <strong>aha-experience</strong>?</p>","","aha","html-keyboard-response","403","743674","0.0-2.0-5.66","NVH","2","pretest","true","3708153","50","../img/tt/129tt.jpg","","2"
"null","<div style=""font-size:60px;""> </div>","","fixation","html-keyboard-response","404","743877","0.0-2.0-0.67","NVH","2","pretest","true","3708153","null","","",""
"null","../img/tt/408tt.jpg","","mooney1","image-keyboard-response","405","746879","0.0-2.0-1.67","NVH","2","pretest","true","3708153","null","../img/tt/408tt.jpg","",""
"129","<p></p>","","recognized","html-keyboard-response","406","747009","0.0-2.0-2.67","NVH","2","pretest","true","3708153","89","../img/tt/408tt.jpg","y",""
"null","../img/gs/408gs.jpg","","solution","image-keyboard-response","407","749011","0.0-2.0-3.67","NVH","2","pretest","true","3708153","null","","",""
"null","../img/tt/408tt.jpg","","mooney2","image-keyboard-response","408","751013","0.0-2.0-4.67","NVH","2","pretest","true","3708153","null","","",""
"2106","<p>How strong was your <strong>aha-experience</strong>?</p>","","aha","html-keyboard-response","409","753120","0.0-2.0-5.67","NVH","2","pretest","true","3708153","53","../img/tt/408tt.jpg","","5"
"null","<div style=""font-size:60px;""> </div>","","fixation","html-keyboard-response","410","753322","0.0-2.0-0.68","NVH","2","pretest","true","3708153","null","","",""
"null","../img/tt/409tt.jpg","","mooney1","image-keyboard-response","411","756325","0.0-2.0-1.68","NVH","2","pretest","true","3708153","null","../img/tt/409tt.jpg","",""
"75","<p></p>","","recognized","html-keyboard-response","412","756400","0.0-2.0-2.68","NVH","2","pretest","true","3708153","89","../img/tt/409tt.jpg","y",""
"null","../img/gs/409gs.jpg","","solution","image-keyboard-response","413","758403","0.0-2.0-3.68","NVH","2","pretest","true","3708153","null","","",""
"null","../img/tt/409tt.jpg","","mooney2","image-keyboard-response","414","760405","0.0-2.0-4.68","NVH","2","pretest","true","3708153","null","","",""
"107","<p>How strong was your <strong>aha-experience</strong>?</p>","","aha","html-keyboard-response","415","760512","0.0-2.0-5.68","NVH","2","pretest","true","3708153","51","../img/tt/409tt.jpg","","3"
"null","<div style=""font-size:60px;""> </div>","","fixation","html-keyboard-response","416","760714","0.0-2.0-0.69","NVH","2","pretest","true","3708153","null","","",""
"null","../img/tt/167tt.jpg","","mooney1","image-keyboard-response","417","763716","0.0-2.0-1.69","NVH","2","pretest","true","3708153","null","../img/tt/167tt.jpg","",""
"108","<p></p>","","recognized","html-keyboard-response","418","763824","0.0-2.0-2.69","NVH","2","pretest","true","3708153","89","../img/tt/167tt.jpg","y",""
"null","../img/gs/167gs.jpg","","solution","image-keyboard-response","419","765826","0.0-2.0-3.69","NVH","2","pretest","true","3708153","null","","",""
"null","../img/tt/167tt.jpg","","mooney2","image-keyboard-response","420","767827","0.0-2.0-4.69","NVH","2","pretest","true","3708153","null","","",""
"109","<p>How strong was your <strong>aha-experience</strong>?</p>","","aha","html-keyboard-response","421","767937","0.0-2.0-5.69","NVH","2","pretest","true","3708153","53","../img/tt/167tt.jpg","","5"
"null","<div style=""font-size:60px;""> </div>","","fixation","html-keyboard-response","422","768138","0.0-2.0-0.70","NVH","2","pretest","true","3708153","null","","",""
"null","../img/tt/448tt.jpg","","mooney1","image-keyboard-response","423","771140","0.0-2.0-1.70","NVH","2","pretest","true","3708153","null","../img/tt/448tt.jpg","",""
"42","<p></p>","","recognized","html-keyboard-response","424","771183","0.0-2.0-2.70","NVH","2","pretest","true","3708153","78","../img/tt/448tt.jpg","n",""
"null","../img/gs/448gs.jpg","","solution","image-keyboard-response","425","773185","0.0-2.0-3.70","NVH","2","pretest","true","3708153","null","","",""
"null","../img/tt/448tt.jpg","","mooney2","image-keyboard-response","426","775187","0.0-2.0-4.70","NVH","2","pretest","true","3708153","null","","",""
"3084","<p>How strong was your <strong>aha-experience</strong>?</p>","","aha","html-keyboard-response","427","778273","0.0-2.0-5.70","NVH","2","pretest","true","3708153","51","../img/tt/448tt.jpg","","3"
"null","<div style=""font-size:60px;""> </div>","","fixation","html-keyboard-response","428","778475","0.0-2.0-0.71","NVH","2","pretest","true","3708153","null","","",""
"null","../img/tt/464tt.jpg","","mooney1","image-keyboard-response","429","781478","0.0-2.0-1.71","NVH","2","pretest","true","3708153","null","../img/tt/464tt.jpg","",""
"187","<p></p>","","recognized","html-keyboard-response","430","781667","0.0-2.0-2.71","NVH","2","pretest","true","3708153","78","../img/tt/464tt.jpg","n",""
"null","../img/gs/464gs.jpg","","solution","image-keyboard-response","431","783669","0.0-2.0-3.71","NVH","2","pretest","true","3708153","null","","",""
"null","../img/tt/464tt.jpg","","mooney2","image-keyboard-response","432","785671","0.0-2.0-4.71","NVH","2","pretest","true","3708153","null","","",""
"242","<p>How strong was your <strong>aha-experience</strong>?</p>","","aha","html-keyboard-response","433","785914","0.0-2.0-5.71","NVH","2","pretest","true","3708153","49","../img/tt/464tt.jpg","","1"
"null","<div style=""font-size:60px;""> </div>","","fixation","html-keyboard-response","434","786117","0.0-2.0-0.72","NVH","2","pretest","true","3708153","null","","",""
"null","../img/tt/1316tt.jpg","","mooney1","image-keyboard-response","435","789121","0.0-2.0-1.72","NVH","2","pretest","true","3708153","null","../img/tt/1316tt.jpg","",""
"273","<p></p>","","recognized","html-keyboard-response","436","789394","0.0-2.0-2.72","NVH","2","pretest","true","3708153","78","../img/tt/1316tt.jpg","n",""
"null","../img/gs/1316gs.jpg","","solution","image-keyboard-response","437","791396","0.0-2.0-3.72","NVH","2","pretest","true","3708153","null","","",""
"null","../img/tt/1316tt.jpg","","mooney2","image-keyboard-response","438","793399","0.0-2.0-4.72","NVH","2","pretest","true","3708153","null","","",""
"379","<p>How strong was your <strong>aha-experience</strong>?</p>","","aha","html-keyboard-response","439","793778","0.0-2.0-5.72","NVH","2","pretest","true","3708153","51","../img/tt/1316tt.jpg","","3"
"null","<div style=""font-size:60px;""> </div>","","fixation","html-keyboard-response","440","793979","0.0-2.0-0.73","NVH","2","pretest","true","3708153","null","","",""
"null","../img/tt/206tt.jpg","","mooney1","image-keyboard-response","441","796981","0.0-2.0-1.73","NVH","2","pretest","true","3708153","null","../img/tt/206tt.jpg","",""
"6","<p></p>","","recognized","html-keyboard-response","442","796988","0.0-2.0-2.73","NVH","2","pretest","true","3708153","89","../img/tt/206tt.jpg","y",""
"null","../img/gs/206gs.jpg","","solution","image-keyboard-response","443","798994","0.0-2.0-3.73","NVH","2","pretest","true","3708153","null","","",""
"null","../img/tt/206tt.jpg","","mooney2","image-keyboard-response","444","800997","0.0-2.0-4.73","NVH","2","pretest","true","3708153","null","","",""
"1738","<p>How strong was your <strong>aha-experience</strong>?</p>","","aha","html-keyboard-response","445","802738","0.0-2.0-5.73","NVH","2","pretest","true","3708153","52","../img/tt/206tt.jpg","","4"
"null","<div style=""font-size:60px;""> </div>","","fixation","html-keyboard-response","446","802940","0.0-2.0-0.74","NVH","2","pretest","true","3708153","null","","",""
"null","../img/tt/368tt.jpg","","mooney1","image-keyboard-response","447","805941","0.0-2.0-1.74","NVH","2","pretest","true","3708153","null","../img/tt/368tt.jpg","",""
"28","<p></p>","","recognized","html-keyboard-response","448","805970","0.0-2.0-2.74","NVH","2","pretest","true","3708153","89","../img/tt/368tt.jpg","y",""
"null","../img/gs/368gs.jpg","","solution","image-keyboard-response","449","807972","0.0-2.0-3.74","NVH","2","pretest","true","3708153","null","","",""
"null","../img/tt/368tt.jpg","","mooney2","image-keyboard-response","450","809974","0.0-2.0-4.74","NVH","2","pretest","true","3708153","null","","",""
"155","<p>How strong was your <strong>aha-experience</strong>?</p>","","aha","html-keyboard-response","451","810130","0.0-2.0-5.74","NVH","2","pretest","true","3708153","53","../img/tt/368tt.jpg","","5"
"null","<div style=""font-size:60px;""> </div>","","fixation","html-keyboard-response","452","810331","0.0-2.0-0.75","NVH","2","pretest","true","3708153","null","","",""
"null","../img/tt/182tt.jpg","","mooney1","image-keyboard-response","453","813333","0.0-2.0-1.75","NVH","2","pretest","true","3708153","null","../img/tt/182tt.jpg","",""
"430","<p></p>","","recognized","html-keyboard-response","454","813763","0.0-2.0-2.75","NVH","2","pretest","true","3708153","78","../img/tt/182tt.jpg","n",""
"null","../img/gs/182gs.jpg","","solution","image-keyboard-response","455","815766","0.0-2.0-3.75","NVH","2","pretest","true","3708153","null","","",""
"null","../img/tt/182tt.jpg","","mooney2","image-keyboard-response","456","817767","0.0-2.0-4.75","NVH","2","pretest","true","3708153","null","","",""
"163","<p>How strong was your <strong>aha-experience</strong>?</p>","","aha","html-keyboard-response","457","817931","0.0-2.0-5.75","NVH","2","pretest","true","3708153","49","../img/tt/182tt.jpg","","1"
"null","<div style=""font-size:60px;""> </div>","","fixation","html-keyboard-response","458","818133","0.0-2.0-0.76","NVH","2","pretest","true","3708153","null","","",""
"null","../img/tt/486tt.jpg","","mooney1","image-keyboard-response","459","821135","0.0-2.0-1.76","NVH","2","pretest","true","3708153","null","../img/tt/486tt.jpg","",""
"66","<p></p>","","recognized","html-keyboard-response","460","821202","0.0-2.0-2.76","NVH","2","pretest","true","3708153","89","../img/tt/486tt.jpg","y",""
"null","../img/gs/486gs.jpg","","solution","image-keyboard-response","461","823203","0.0-2.0-3.76","NVH","2","pretest","true","3708153","null","","",""
"null","../img/tt/486tt.jpg","","mooney2","image-keyboard-response","462","825206","0.0-2.0-4.76","NVH","2","pretest","true","3708153","null","","",""
"3764","<p>How strong was your <strong>aha-experience</strong>?</p>","","aha","html-keyboard-response","463","828970","0.0-2.0-5.76","NVH","2","pretest","true","3708153","52","../img/tt/486tt.jpg","","4"
"null","<div style=""font-size:60px;""> </div>","","fixation","html-keyboard-response","464","829171","0.0-2.0-0.77","NVH","2","pretest","true","3708153","null","","",""
"null","../img/tt/1297tt.jpg","","mooney1","image-keyboard-response","465","832173","0.0-2.0-1.77","NVH","2","pretest","true","3708153","null","../img/tt/1297tt.jpg","",""
"165","<p></p>","","recognized","html-keyboard-response","466","832338","0.0-2.0-2.77","NVH","2","pretest","true","3708153","89","../img/tt/1297tt.jpg","y",""
"null","../img/gs/1297gs.jpg","","solution","image-keyboard-response","467","834340","0.0-2.0-3.77","NVH","2","pretest","true","3708153","null","","",""
"null","../img/tt/1297tt.jpg","","mooney2","image-keyboard-response","468","836342","0.0-2.0-4.77","NVH","2","pretest","true","3708153","null","","",""
"91","<p>How strong was your <strong>aha-experience</strong>?</p>","","aha","html-keyboard-response","469","836434","0.0-2.0-5.77","NVH","2","pretest","true","3708153","54","../img/tt/1297tt.jpg","","6"
"null","<div style=""font-size:60px;""> </div>","","fixation","html-keyboard-response","470","836636","0.0-2.0-0.78","NVH","2","pretest","true","3708153","null","","",""
"null","../img/tt/548tt.jpg","","mooney1","image-keyboard-response","471","839639","0.0-2.0-1.78","NVH","2","pretest","true","3708153","null","../img/tt/548tt.jpg","",""
"147","<p></p>","","recognized","html-keyboard-response","472","839787","0.0-2.0-2.78","NVH","2","pretest","true","3708153","89","../img/tt/548tt.jpg","y",""
"null","../img/gs/548gs.jpg","","solution","image-keyboard-response","473","841788","0.0-2.0-3.78","NVH","2","pretest","true","3708153","null","","",""
"null","../img/tt/548tt.jpg","","mooney2","image-keyboard-response","474","843789","0.0-2.0-4.78","NVH","2","pretest","true","3708153","null","","",""
"3901","<p>How strong was your <strong>aha-experience</strong>?</p>","","aha","html-keyboard-response","475","847691","0.0-2.0-5.78","NVH","2","pretest","true","3708153","53","../img/tt/548tt.jpg","","5"
"null","<div style=""font-size:60px;""> </div>","","fixation","html-keyboard-response","476","847893","0.0-2.0-0.79","NVH","2","pretest","true","3708153","null","","",""
"null","../img/tt/567tt.jpg","","mooney1","image-keyboard-response","477","850897","0.0-2.0-1.79","NVH","2","pretest","true","3708153","null","../img/tt/567tt.jpg","",""
"82","<p></p>","","recognized","html-keyboard-response","478","850979","0.0-2.0-2.79","NVH","2","pretest","true","3708153","78","../img/tt/567tt.jpg","n",""
"null","../img/gs/567gs.jpg","","solution","image-keyboard-response","479","852980","0.0-2.0-3.79","NVH","2","pretest","true","3708153","null","","",""
"null","../img/tt/567tt.jpg","","mooney2","image-keyboard-response","480","854982","0.0-2.0-4.79","NVH","2","pretest","true","3708153","null","","",""
"504","<p>How strong was your <strong>aha-experience</strong>?</p>","","aha","html-keyboard-response","481","855487","0.0-2.0-5.79","NVH","2","pretest","true","3708153","50","../img/tt/567tt.jpg","","2"
"null","<div style=""font-size:60px;""> </div>","","fixation","html-keyboard-response","482","855689","0.0-2.0-0.80","NVH","2","pretest","true","3708153","null","","",""
"null","../img/tt/1314tt.jpg","","mooney1","image-keyboard-response","483","858691","0.0-2.0-1.80","NVH","2","pretest","true","3708153","null","../img/tt/1314tt.jpg","",""
"63","<p></p>","","recognized","html-keyboard-response","484","858754","0.0-2.0-2.80","NVH","2","pretest","true","3708153","78","../img/tt/1314tt.jpg","n",""
"null","../img/gs/1314gs.jpg","","solution","image-keyboard-response","485","860756","0.0-2.0-3.80","NVH","2","pretest","true","3708153","null","","",""
"null","../img/tt/1314tt.jpg","","mooney2","image-keyboard-response","486","862757","0.0-2.0-4.80","NVH","2","pretest","true","3708153","null","","",""
"5","<p>How strong was your <strong>aha-experience</strong>?</p>","","aha","html-keyboard-response","487","862763","0.0-2.0-5.80","NVH","2","pretest","true","3708153","50","../img/tt/1314tt.jpg","","2"
"null","<div style=""font-size:60px;""> </div>","","fixation","html-keyboard-response","488","862965","0.0-2.0-0.81","NVH","2","pretest","true","3708153","null","","",""
"null","../img/tt/301tt.jpg","","mooney1","image-keyboard-response","489","865968","0.0-2.0-1.81","NVH","2","pretest","true","3708153","null","../img/tt/301tt.jpg","",""
"834","<p></p>","","recognized","html-keyboard-response","490","866804","0.0-2.0-2.81","NVH","2","pretest","true","3708153","78","../img/tt/301tt.jpg","n",""
"null","../img/gs/301gs.jpg","","solution","image-keyboard-response","491","868806","0.0-2.0-3.81","NVH","2","pretest","true","3708153","null","","",""
"null","../img/tt/301tt.jpg","","mooney2","image-keyboard-response","492","870810","0.0-2.0-4.81","NVH","2","pretest","true","3708153","null","","",""
"97","<p>How strong was your <strong>aha-experience</strong>?</p>","","aha","html-keyboard-response","493","870907","0.0-2.0-5.81","NVH","2","pretest","true","3708153","53","../img/tt/301tt.jpg","","5"
"null","<div style=""font-size:60px;""> </div>","","fixation","html-keyboard-response","494","871108","0.0-2.0-0.82","NVH","2","pretest","true","3708153","null","","",""
"null","../img/tt/275tt.jpg","","mooney1","image-keyboard-response","495","874110","0.0-2.0-1.82","NVH","2","pretest","true","3708153","null","../img/tt/275tt.jpg","",""
"29","<p></p>","","recognized","html-keyboard-response","496","874141","0.0-2.0-2.82","NVH","2","pretest","true","3708153","89","../img/tt/275tt.jpg","y",""
"null","../img/gs/275gs.jpg","","solution","image-keyboard-response","497","876143","0.0-2.0-3.82","NVH","2","pretest","true","3708153","null","","",""
"null","../img/tt/275tt.jpg","","mooney2","image-keyboard-response","498","878144","0.0-2.0-4.82","NVH","2","pretest","true","3708153","null","","",""
"2250","<p>How strong was your <strong>aha-experience</strong>?</p>","","aha","html-keyboard-response","499","880395","0.0-2.0-5.82","NVH","2","pretest","true","3708153","52","../img/tt/275tt.jpg","","4"
"null","<div style=""font-size:60px;""> </div>","","fixation","html-keyboard-response","500","880597","0.0-2.0-0.83","NVH","2","pretest","true","3708153","null","","",""
"null","../img/tt/1305tt.jpg","","mooney1","image-keyboard-response","501","884267","0.0-2.0-1.83","NVH","2","pretest","true","3708153","null","../img/tt/1305tt.jpg","",""
"14318","<p></p>","","recognized","html-keyboard-response","502","898590","0.0-2.0-2.83","NVH","2","pretest","true","3708153","89","../img/tt/1305tt.jpg","y",""
"null","../img/gs/1305gs.jpg","","solution","image-keyboard-response","503","900592","0.0-2.0-3.83","NVH","2","pretest","true","3708153","null","","",""
"null","../img/tt/1305tt.jpg","","mooney2","image-keyboard-response","504","902594","0.0-2.0-4.83","NVH","2","pretest","true","3708153","null","","",""
"1203","<p>How strong was your <strong>aha-experience</strong>?</p>","","aha","html-keyboard-response","505","903799","0.0-2.0-5.83","NVH","2","pretest","true","3708153","54","../img/tt/1305tt.jpg","","6"
"null","<div style=""font-size:60px;""> </div>","","fixation","html-keyboard-response","506","904001","0.0-2.0-0.84","NVH","2","pretest","true","3708153","null","","",""
"null","../img/tt/1344tt.jpg","","mooney1","image-keyboard-response","507","907003","0.0-2.0-1.84","NVH","2","pretest","true","3708153","null","../img/tt/1344tt.jpg","",""
"21","<p></p>","","recognized","html-keyboard-response","508","907027","0.0-2.0-2.84","NVH","2","pretest","true","3708153","89","../img/tt/1344tt.jpg","y",""
"null","../img/gs/1344gs.jpg","","solution","image-keyboard-response","509","909030","0.0-2.0-3.84","NVH","2","pretest","true","3708153","null","","",""
"null","../img/tt/1344tt.jpg","","mooney2","image-keyboard-response","510","911031","0.0-2.0-4.84","NVH","2","pretest","true","3708153","null","","",""
"156","<p>How strong was your <strong>aha-experience</strong>?</p>","","aha","html-keyboard-response","511","911189","0.0-2.0-5.84","NVH","2","pretest","true","3708153","54","../img/tt/1344tt.jpg","","6"
"null","<div style=""font-size:60px;""> </div>","","fixation","html-keyboard-response","512","911393","0.0-2.0-0.85","NVH","2","pretest","true","3708153","null","","",""
"null","../img/tt/1299tt.jpg","","mooney1","image-keyboard-response","513","914395","0.0-2.0-1.85","NVH","2","pretest","true","3708153","null","../img/tt/1299tt.jpg","",""
"80","<p></p>","","recognized","html-keyboard-response","514","914475","0.0-2.0-2.85","NVH","2","pretest","true","3708153","89","../img/tt/1299tt.jpg","y",""
"null","../img/gs/1299gs.jpg","","solution","image-keyboard-response","515","916478","0.0-2.0-3.85","NVH","2","pretest","true","3708153","null","","",""
"null","../img/tt/1299tt.jpg","","mooney2","image-keyboard-response","516","918480","0.0-2.0-4.85","NVH","2","pretest","true","3708153","null","","",""
"924","<p>How strong was your <strong>aha-experience</strong>?</p>","","aha","html-keyboard-response","517","919405","0.0-2.0-5.85","NVH","2","pretest","true","3708153","53","../img/tt/1299tt.jpg","","5"
"null","<div style=""font-size:60px;""> </div>","","fixation","html-keyboard-response","518","919606","0.0-2.0-0.86","NVH","2","pretest","true","3708153","null","","",""
"null","../img/tt/504tt.jpg","","mooney1","image-keyboard-response","519","922608","0.0-2.0-1.86","NVH","2","pretest","true","3708153","null","../img/tt/504tt.jpg","",""
"123","<p></p>","","recognized","html-keyboard-response","520","922732","0.0-2.0-2.86","NVH","2","pretest","true","3708153","89","../img/tt/504tt.jpg","y",""
"null","../img/gs/504gs.jpg","","solution","image-keyboard-response","521","924734","0.0-2.0-3.86","NVH","2","pretest","true","3708153","null","","",""
"null","../img/tt/504tt.jpg","","mooney2","image-keyboard-response","522","926736","0.0-2.0-4.86","NVH","2","pretest","true","3708153","null","","",""
"19","<p>How strong was your <strong>aha-experience</strong>?</p>","","aha","html-keyboard-response","523","926757","0.0-2.0-5.86","NVH","2","pretest","true","3708153","54","../img/tt/504tt.jpg","","6"
"null","<div style=""font-size:60px;""> </div>","","fixation","html-keyboard-response","524","926959","0.0-2.0-0.87","NVH","2","pretest","true","3708153","null","","",""
"null","../img/tt/307tt.jpg","","mooney1","image-keyboard-response","525","929962","0.0-2.0-1.87","NVH","2","pretest","true","3708153","null","../img/tt/307tt.jpg","",""
"354","<p></p>","","recognized","html-keyboard-response","526","930317","0.0-2.0-2.87","NVH","2","pretest","true","3708153","78","../img/tt/307tt.jpg","n",""
"null","../img/gs/307gs.jpg","","solution","image-keyboard-response","527","932319","0.0-2.0-3.87","NVH","2","pretest","true","3708153","null","","",""
"null","../img/tt/307tt.jpg","","mooney2","image-keyboard-response","528","934321","0.0-2.0-4.87","NVH","2","pretest","true","3708153","null","","",""
"708","<p>How strong was your <strong>aha-experience</strong>?</p>","","aha","html-keyboard-response","529","935031","0.0-2.0-5.87","NVH","2","pretest","true","3708153","53","../img/tt/307tt.jpg","","5"
"null","<div style=""font-size:60px;""> </div>","","fixation","html-keyboard-response","530","935232","0.0-2.0-0.88","NVH","2","pretest","true","3708153","null","","",""
"null","../img/tt/137tt.jpg","","mooney1","image-keyboard-response","531","938234","0.0-2.0-1.88","NVH","2","pretest","true","3708153","null","../img/tt/137tt.jpg","",""
"185","<p></p>","","recognized","html-keyboard-response","532","938421","0.0-2.0-2.88","NVH","2","pretest","true","3708153","89","../img/tt/137tt.jpg","y",""
"null","../img/gs/137gs.jpg","","solution","image-keyboard-response","533","940422","0.0-2.0-3.88","NVH","2","pretest","true","3708153","null","","",""
"null","../img/tt/137tt.jpg","","mooney2","image-keyboard-response","534","942424","0.0-2.0-4.88","NVH","2","pretest","true","3708153","null","","",""
"85","<p>How strong was your <strong>aha-experience</strong>?</p>","","aha","html-keyboard-response","535","942510","0.0-2.0-5.88","NVH","2","pretest","true","3708153","53","../img/tt/137tt.jpg","","5"
"null","<div style=""font-size:60px;""> </div>","","fixation","html-keyboard-response","536","942711","0.0-2.0-0.89","NVH","2","pretest","true","3708153","null","","",""
"null","../img/tt/417tt.jpg","","mooney1","image-keyboard-response","537","945715","0.0-2.0-1.89","NVH","2","pretest","true","3708153","null","../img/tt/417tt.jpg","",""
"179","<p></p>","","recognized","html-keyboard-response","538","945894","0.0-2.0-2.89","NVH","2","pretest","true","3708153","78","../img/tt/417tt.jpg","n",""
"null","../img/gs/417gs.jpg","","solution","image-keyboard-response","539","947896","0.0-2.0-3.89","NVH","2","pretest","true","3708153","null","","",""
"null","../img/tt/417tt.jpg","","mooney2","image-keyboard-response","540","949898","0.0-2.0-4.89","NVH","2","pretest","true","3708153","null","","",""
"3195","<p>How strong was your <strong>aha-experience</strong>?</p>","","aha","html-keyboard-response","541","953095","0.0-2.0-5.89","NVH","2","pretest","true","3708153","51","../img/tt/417tt.jpg","","3"
"null","<div style=""font-size:60px;""> </div>","","fixation","html-keyboard-response","542","953297","0.0-2.0-0.90","NVH","2","pretest","true","3708153","null","","",""
"null","../img/tt/1347tt.jpg","","mooney1","image-keyboard-response","543","956300","0.0-2.0-1.90","NVH","2","pretest","true","3708153","null","../img/tt/1347tt.jpg","",""
"342","<p></p>","","recognized","html-keyboard-response","544","956642","0.0-2.0-2.90","NVH","2","pretest","true","3708153","78","../img/tt/1347tt.jpg","n",""
"null","../img/gs/1347gs.jpg","","solution","image-keyboard-response","545","958645","0.0-2.0-3.90","NVH","2","pretest","true","3708153","null","","",""
"null","../img/tt/1347tt.jpg","","mooney2","image-keyboard-response","546","960648","0.0-2.0-4.90","NVH","2","pretest","true","3708153","null","","",""
"877","<p>How strong was your <strong>aha-experience</strong>?</p>","","aha","html-keyboard-response","547","961526","0.0-2.0-5.90","NVH","2","pretest","true","3708153","50","../img/tt/1347tt.jpg","","2"
"null","<div style=""font-size:60px;""> </div>","","fixation","html-keyboard-response","548","961727","0.0-2.0-0.91","NVH","2","pretest","true","3708153","null","","",""
"null","../img/tt/469tt.jpg","","mooney1","image-keyboard-response","549","964729","0.0-2.0-1.91","NVH","2","pretest","true","3708153","null","../img/tt/469tt.jpg","",""
"541","<p></p>","","recognized","html-keyboard-response","550","965272","0.0-2.0-2.91","NVH","2","pretest","true","3708153","78","../img/tt/469tt.jpg","n",""
"null","../img/gs/469gs.jpg","","solution","image-keyboard-response","551","967276","0.0-2.0-3.91","NVH","2","pretest","true","3708153","null","","",""
"null","../img/tt/469tt.jpg","","mooney2","image-keyboard-response","552","969278","0.0-2.0-4.91","NVH","2","pretest","true","3708153","null","","",""
"2705","<p>How strong was your <strong>aha-experience</strong>?</p>","","aha","html-keyboard-response","553","971984","0.0-2.0-5.91","NVH","2","pretest","true","3708153","51","../img/tt/469tt.jpg","","3"
"null","<div style=""font-size:60px;""> </div>","","fixation","html-keyboard-response","554","972185","0.0-2.0-0.92","NVH","2","pretest","true","3708153","null","","",""
"null","../img/tt/470tt.jpg","","mooney1","image-keyboard-response","555","975188","0.0-2.0-1.92","NVH","2","pretest","true","3708153","null","../img/tt/470tt.jpg","",""
"144","<p></p>","","recognized","html-keyboard-response","556","975333","0.0-2.0-2.92","NVH","2","pretest","true","3708153","78","../img/tt/470tt.jpg","n",""
"null","../img/gs/470gs.jpg","","solution","image-keyboard-response","557","977333","0.0-2.0-3.92","NVH","2","pretest","true","3708153","null","","",""
"null","../img/tt/470tt.jpg","","mooney2","image-keyboard-response","558","979334","0.0-2.0-4.92","NVH","2","pretest","true","3708153","null","","",""
"1414","<p>How strong was your <strong>aha-experience</strong>?</p>","","aha","html-keyboard-response","559","980749","0.0-2.0-5.92","NVH","2","pretest","true","3708153","53","../img/tt/470tt.jpg","","5"
"null","<div style=""font-size:60px;""> </div>","","fixation","html-keyboard-response","560","980951","0.0-2.0-0.93","NVH","2","pretest","true","3708153","null","","",""
"null","../img/tt/510tt.jpg","","mooney1","image-keyboard-response","561","983953","0.0-2.0-1.93","NVH","2","pretest","true","3708153","null","../img/tt/510tt.jpg","",""
"92","<p></p>","","recognized","html-keyboard-response","562","984046","0.0-2.0-2.93","NVH","2","pretest","true","3708153","89","../img/tt/510tt.jpg","y",""
"null","../img/gs/510gs.jpg","","solution","image-keyboard-response","563","986048","0.0-2.0-3.93","NVH","2","pretest","true","3708153","null","","",""
"null","../img/tt/510tt.jpg","","mooney2","image-keyboard-response","564","988052","0.0-2.0-4.93","NVH","2","pretest","true","3708153","null","","",""
"1673","<p>How strong was your <strong>aha-experience</strong>?</p>","","aha","html-keyboard-response","565","989726","0.0-2.0-5.93","NVH","2","pretest","true","3708153","51","../img/tt/510tt.jpg","","3"
"null","<div style=""font-size:60px;""> </div>","","fixation","html-keyboard-response","566","989927","0.0-2.0-0.94","NVH","2","pretest","true","3708153","null","","",""
"null","../img/tt/1355tt.jpg","","mooney1","image-keyboard-response","567","992929","0.0-2.0-1.94","NVH","2","pretest","true","3708153","null","../img/tt/1355tt.jpg","",""
