"rt","stimulus","button_pressed","test_part","trial_type","trial_index","time_elapsed","internal_node_id","subject","session","experiment_name","complete","totalTime","key_press","currentStim","recognized","aha"
"6952","<div style='word-wrap: break-word; width: 900px'><h3>Please consider this information carefully before deciding whether to participate in this research</h3><ul style='text-align: left; font-size: .8em;'><li><b>Purpose of the research</b>: To examine how people process images.</li><li><b>What you will do in this research</b>:  Stimuli (images) will be presented on the computer and you will be asked different questions about them.</li><li><b>Time required</b>: Participation will take max 60 minutes to complete.</li><li><b>Risks</b>:  There are no anticipated risks associated with participating in this study. The effects of participating should be comparable to those you would experience from viewing a computer monitor for 60 minutes and using a mouse or keyboard.</li><li><b>Benefits</b>:  This study provides no benefits to you individually. The study provides important information about the nature of perception and learning.</li><li><b>Confidentiality</b>:  Your participation in this study will remain confidential. No personally identifiable information will be associated with your data. Your de-identified data may be shared with other researchers and used in future projects.</li><li><b>Participation and withdrawal</b>:  Your participation in this study is completely voluntary and you may refuse to participate or you may choose to withdraw at any time without penalty.</li><li><b>How to contact the researchers</b>: If you have questions or concerns about your participation or payment, or want to request a summary of research findings, please contact Sander Van de Cruys (KU Leuven), at sander.vandecruys@kuleuven.be.</li></ul><p>The nature and purpose of this research have been sufficiently explained and I agree to participate in this study.  I understand that I am free to withdraw at any time without incurring any penalty.</p><p>Please consent by clicking the button below to continue. Otherwise, please exit the study at this time.</p></div>","0","instructions","html-button-response","0","6953","0.0-0.0","PG","1","pretest","true","4518715","","","",""
"225252","<div style='word-wrap: break-word; width: 900px'><h3>Instructions</h3><p>In this experiment you will see a series of distorted images like the one below on the left. As you can see in the righthand image, the distorted images are derived from actual photographs.In what follows, you will <strong>briefly</strong> be presented with <strong>only</strong> the distorted image.</p> <div style='float: left; margin-right: 20px;'><img src='../img/018tt.jpg' height='250' width='250'></img></div><div style='float: right; margin-left: 20px;'><img src='../img/018gs.jpg' height='250' width='250'></img></div><p>To be useful for future research, we need to select those images that people can generally not solve on their own. Therefore we'll show you the distorted image and ask you to indicate (yes or no) whether you already recognized what was in the image. This is not a competition, so please respond truthfully. We don't ask or check your answer, we just want to know whether you think you recognized it. All images depict objects from one of these broad level categories: animals, inanimate objects, plants, sports, vehicles, and food. Recognizing means knowing more than these broad labels for a given image. It means knowing at least the basic level category of the main object in the image, for example when you see a parrot in the image, 'parrot' will obviously be a correct answer but also correct is 'bird', but not 'animal' (the broad level category). For the example above, 'rose' would be correct or 'flower', but not 'plant'. When soccer players are depicted, you don't recognize the image when you just see 'humans', 'outdoors', or 'sports'. Note that complete certainty about your answer is not necessary, it's enough to have a good, definite guess on the object, to say 'yes, I recognized it'.</p><p>One additional question will be asked after we've revealed the solution: You'll be asked to indicate how strong your <strong>aha-experience</strong> was. This describes the positive 'click' you sometimes experience, when the pieces of the 'puzzle' fall together and you suddenly have 'insight' in the image. It describes how good you felt the 'fit' was between the distorted image and the solution.</p><p>Press any key to start.</p></div>","","instructions","html-keyboard-response","1","232207","0.0-1.0","PG","1","pretest","true","4518715","32","","",""
"null","<div style=""font-size:60px;""> </div>","","fixation","html-keyboard-response","2","232408","0.0-2.0-0.0","PG","1","pretest","true","4518715","null","","",""
"null","../img/tt/1281tt.jpg","","mooney1","image-keyboard-response","3","235418","0.0-2.0-1.0","PG","1","pretest","true","4518715","null","../img/tt/1281tt.jpg","",""
"3016","<p></p>","","recognized","html-keyboard-response","4","238434","0.0-2.0-2.0","PG","1","pretest","true","4518715","78","../img/tt/1281tt.jpg","n",""
"null","../img/gs/1281gs.jpg","","solution","image-keyboard-response","5","240449","0.0-2.0-3.0","PG","1","pretest","true","4518715","null","","",""
"null","../img/tt/1281tt.jpg","","mooney2","image-keyboard-response","6","242453","0.0-2.0-4.0","PG","1","pretest","true","4518715","null","","",""
"9962","<p>How strong was your <strong>aha-experience</strong>?</p>","","aha","html-keyboard-response","7","252415","0.0-2.0-5.0","PG","1","pretest","true","4518715","51","../img/tt/1281tt.jpg","","3"
"null","<div style=""font-size:60px;""> </div>","","fixation","html-keyboard-response","8","252622","0.0-2.0-0.1","PG","1","pretest","true","4518715","null","","",""
"null","../img/tt/1260tt.jpg","","mooney1","image-keyboard-response","9","255636","0.0-2.0-1.1","PG","1","pretest","true","4518715","null","../img/tt/1260tt.jpg","",""
"2158","<p></p>","","recognized","html-keyboard-response","10","257795","0.0-2.0-2.1","PG","1","pretest","true","4518715","78","../img/tt/1260tt.jpg","n",""
"null","../img/gs/1260gs.jpg","","solution","image-keyboard-response","11","259800","0.0-2.0-3.1","PG","1","pretest","true","4518715","null","","",""
"null","../img/tt/1260tt.jpg","","mooney2","image-keyboard-response","12","261809","0.0-2.0-4.1","PG","1","pretest","true","4518715","null","","",""
"5022","<p>How strong was your <strong>aha-experience</strong>?</p>","","aha","html-keyboard-response","13","266832","0.0-2.0-5.1","PG","1","pretest","true","4518715","50","../img/tt/1260tt.jpg","","2"
"null","<div style=""font-size:60px;""> </div>","","fixation","html-keyboard-response","14","267037","0.0-2.0-0.2","PG","1","pretest","true","4518715","null","","",""
"null","../img/tt/1263tt.jpg","","mooney1","image-keyboard-response","15","270047","0.0-2.0-1.2","PG","1","pretest","true","4518715","null","../img/tt/1263tt.jpg","",""
"2444","<p></p>","","recognized","html-keyboard-response","16","272491","0.0-2.0-2.2","PG","1","pretest","true","4518715","78","../img/tt/1263tt.jpg","n",""
"null","../img/gs/1263gs.jpg","","solution","image-keyboard-response","17","274498","0.0-2.0-3.2","PG","1","pretest","true","4518715","null","","",""
"null","../img/tt/1263tt.jpg","","mooney2","image-keyboard-response","18","276503","0.0-2.0-4.2","PG","1","pretest","true","4518715","null","","",""
"1693","<p>How strong was your <strong>aha-experience</strong>?</p>","","aha","html-keyboard-response","19","278198","0.0-2.0-5.2","PG","1","pretest","true","4518715","49","../img/tt/1263tt.jpg","","1"
"null","<div style=""font-size:60px;""> </div>","","fixation","html-keyboard-response","20","278402","0.0-2.0-0.3","PG","1","pretest","true","4518715","null","","",""
"null","../img/tt/1127tt.jpg","","mooney1","image-keyboard-response","21","281407","0.0-2.0-1.3","PG","1","pretest","true","4518715","null","../img/tt/1127tt.jpg","",""
"2383","<p></p>","","recognized","html-keyboard-response","22","283790","0.0-2.0-2.3","PG","1","pretest","true","4518715","78","../img/tt/1127tt.jpg","n",""
"null","../img/gs/1127gs.jpg","","solution","image-keyboard-response","23","285804","0.0-2.0-3.3","PG","1","pretest","true","4518715","null","","",""
"null","../img/tt/1127tt.jpg","","mooney2","image-keyboard-response","24","287819","0.0-2.0-4.3","PG","1","pretest","true","4518715","null","","",""
"2202","<p>How strong was your <strong>aha-experience</strong>?</p>","","aha","html-keyboard-response","25","290023","0.0-2.0-5.3","PG","1","pretest","true","4518715","52","../img/tt/1127tt.jpg","","4"
"null","<div style=""font-size:60px;""> </div>","","fixation","html-keyboard-response","26","290236","0.0-2.0-0.4","PG","1","pretest","true","4518715","null","","",""
"null","../img/tt/1132tt.jpg","","mooney1","image-keyboard-response","27","293261","0.0-2.0-1.4","PG","1","pretest","true","4518715","null","../img/tt/1132tt.jpg","",""
"2451","<p></p>","","recognized","html-keyboard-response","28","295712","0.0-2.0-2.4","PG","1","pretest","true","4518715","89","../img/tt/1132tt.jpg","y",""
"null","../img/gs/1132gs.jpg","","solution","image-keyboard-response","29","297728","0.0-2.0-3.4","PG","1","pretest","true","4518715","null","","",""
"null","../img/tt/1132tt.jpg","","mooney2","image-keyboard-response","30","299731","0.0-2.0-4.4","PG","1","pretest","true","4518715","null","","",""
"9945","<p>How strong was your <strong>aha-experience</strong>?</p>","","aha","html-keyboard-response","31","309677","0.0-2.0-5.4","PG","1","pretest","true","4518715","51","../img/tt/1132tt.jpg","","3"
"null","<div style=""font-size:60px;""> </div>","","fixation","html-keyboard-response","32","309882","0.0-2.0-0.5","PG","1","pretest","true","4518715","null","","",""
"null","../img/tt/1090tt.jpg","","mooney1","image-keyboard-response","33","312894","0.0-2.0-1.5","PG","1","pretest","true","4518715","null","../img/tt/1090tt.jpg","",""
"1964","<p></p>","","recognized","html-keyboard-response","34","314858","0.0-2.0-2.5","PG","1","pretest","true","4518715","89","../img/tt/1090tt.jpg","y",""
"null","../img/gs/1090gs.jpg","","solution","image-keyboard-response","35","316863","0.0-2.0-3.5","PG","1","pretest","true","4518715","null","","",""
"null","../img/tt/1090tt.jpg","","mooney2","image-keyboard-response","36","318869","0.0-2.0-4.5","PG","1","pretest","true","4518715","null","","",""
"1161","<p>How strong was your <strong>aha-experience</strong>?</p>","","aha","html-keyboard-response","37","320030","0.0-2.0-5.5","PG","1","pretest","true","4518715","50","../img/tt/1090tt.jpg","","2"
"null","<div style=""font-size:60px;""> </div>","","fixation","html-keyboard-response","38","320235","0.0-2.0-0.6","PG","1","pretest","true","4518715","null","","",""
"null","../img/tt/1246tt.jpg","","mooney1","image-keyboard-response","39","323243","0.0-2.0-1.6","PG","1","pretest","true","4518715","null","../img/tt/1246tt.jpg","",""
"2276","<p></p>","","recognized","html-keyboard-response","40","325519","0.0-2.0-2.6","PG","1","pretest","true","4518715","78","../img/tt/1246tt.jpg","n",""
"null","../img/gs/1246gs.jpg","","solution","image-keyboard-response","41","327532","0.0-2.0-3.6","PG","1","pretest","true","4518715","null","","",""
"null","../img/tt/1246tt.jpg","","mooney2","image-keyboard-response","42","329540","0.0-2.0-4.6","PG","1","pretest","true","4518715","null","","",""
"3731","<p>How strong was your <strong>aha-experience</strong>?</p>","","aha","html-keyboard-response","43","333271","0.0-2.0-5.6","PG","1","pretest","true","4518715","50","../img/tt/1246tt.jpg","","2"
"null","<div style=""font-size:60px;""> </div>","","fixation","html-keyboard-response","44","333479","0.0-2.0-0.7","PG","1","pretest","true","4518715","null","","",""
"null","../img/tt/117tt.jpg","","mooney1","image-keyboard-response","45","336488","0.0-2.0-1.7","PG","1","pretest","true","4518715","null","../img/tt/117tt.jpg","",""
"1323","<p></p>","","recognized","html-keyboard-response","46","337812","0.0-2.0-2.7","PG","1","pretest","true","4518715","78","../img/tt/117tt.jpg","n",""
"null","../img/gs/117gs.jpg","","solution","image-keyboard-response","47","339815","0.0-2.0-3.7","PG","1","pretest","true","4518715","null","","",""
"null","../img/tt/117tt.jpg","","mooney2","image-keyboard-response","48","341817","0.0-2.0-4.7","PG","1","pretest","true","4518715","null","","",""
"1192","<p>How strong was your <strong>aha-experience</strong>?</p>","","aha","html-keyboard-response","49","343010","0.0-2.0-5.7","PG","1","pretest","true","4518715","49","../img/tt/117tt.jpg","","1"
"null","<div style=""font-size:60px;""> </div>","","fixation","html-keyboard-response","50","343220","0.0-2.0-0.8","PG","1","pretest","true","4518715","null","","",""
"null","../img/tt/1172tt.jpg","","mooney1","image-keyboard-response","51","346228","0.0-2.0-1.8","PG","1","pretest","true","4518715","null","../img/tt/1172tt.jpg","",""
"1511","<p></p>","","recognized","html-keyboard-response","52","347740","0.0-2.0-2.8","PG","1","pretest","true","4518715","78","../img/tt/1172tt.jpg","n",""
"null","../img/gs/1172gs.jpg","","solution","image-keyboard-response","53","349754","0.0-2.0-3.8","PG","1","pretest","true","4518715","null","","",""
"null","../img/tt/1172tt.jpg","","mooney2","image-keyboard-response","54","351761","0.0-2.0-4.8","PG","1","pretest","true","4518715","null","","",""
"776","<p>How strong was your <strong>aha-experience</strong>?</p>","","aha","html-keyboard-response","55","352537","0.0-2.0-5.8","PG","1","pretest","true","4518715","53","../img/tt/1172tt.jpg","","5"
"null","<div style=""font-size:60px;""> </div>","","fixation","html-keyboard-response","56","352753","0.0-2.0-0.9","PG","1","pretest","true","4518715","null","","",""
"null","../img/tt/1018tt.jpg","","mooney1","image-keyboard-response","57","355763","0.0-2.0-1.9","PG","1","pretest","true","4518715","null","../img/tt/1018tt.jpg","",""
"2680","<p></p>","","recognized","html-keyboard-response","58","358443","0.0-2.0-2.9","PG","1","pretest","true","4518715","89","../img/tt/1018tt.jpg","y",""
"null","../img/gs/1018gs.jpg","","solution","image-keyboard-response","59","360446","0.0-2.0-3.9","PG","1","pretest","true","4518715","null","","",""
"null","../img/tt/1018tt.jpg","","mooney2","image-keyboard-response","60","362456","0.0-2.0-4.9","PG","1","pretest","true","4518715","null","","",""
"112154","<p>How strong was your <strong>aha-experience</strong>?</p>","","aha","html-keyboard-response","61","474611","0.0-2.0-5.9","PG","1","pretest","true","4518715","54","../img/tt/1018tt.jpg","","6"
"null","<div style=""font-size:60px;""> </div>","","fixation","html-keyboard-response","62","474817","0.0-2.0-0.10","PG","1","pretest","true","4518715","null","","",""
"null","../img/tt/1125tt.jpg","","mooney1","image-keyboard-response","63","477829","0.0-2.0-1.10","PG","1","pretest","true","4518715","null","../img/tt/1125tt.jpg","",""
"1897","<p></p>","","recognized","html-keyboard-response","64","479727","0.0-2.0-2.10","PG","1","pretest","true","4518715","78","../img/tt/1125tt.jpg","n",""
"null","../img/gs/1125gs.jpg","","solution","image-keyboard-response","65","481737","0.0-2.0-3.10","PG","1","pretest","true","4518715","null","","",""
"null","../img/tt/1125tt.jpg","","mooney2","image-keyboard-response","66","483739","0.0-2.0-4.10","PG","1","pretest","true","4518715","null","","",""
"1710","<p>How strong was your <strong>aha-experience</strong>?</p>","","aha","html-keyboard-response","67","485449","0.0-2.0-5.10","PG","1","pretest","true","4518715","50","../img/tt/1125tt.jpg","","2"
"null","<div style=""font-size:60px;""> </div>","","fixation","html-keyboard-response","68","485662","0.0-2.0-0.11","PG","1","pretest","true","4518715","null","","",""
"null","../img/tt/1200tt.jpg","","mooney1","image-keyboard-response","69","488676","0.0-2.0-1.11","PG","1","pretest","true","4518715","null","../img/tt/1200tt.jpg","",""
"1546","<p></p>","","recognized","html-keyboard-response","70","490222","0.0-2.0-2.11","PG","1","pretest","true","4518715","78","../img/tt/1200tt.jpg","n",""
"null","../img/gs/1200gs.jpg","","solution","image-keyboard-response","71","492226","0.0-2.0-3.11","PG","1","pretest","true","4518715","null","","",""
"null","../img/tt/1200tt.jpg","","mooney2","image-keyboard-response","72","494235","0.0-2.0-4.11","PG","1","pretest","true","4518715","null","","",""
"2304","<p>How strong was your <strong>aha-experience</strong>?</p>","","aha","html-keyboard-response","73","496539","0.0-2.0-5.11","PG","1","pretest","true","4518715","49","../img/tt/1200tt.jpg","","1"
"null","<div style=""font-size:60px;""> </div>","","fixation","html-keyboard-response","74","496751","0.0-2.0-0.12","PG","1","pretest","true","4518715","null","","",""
"null","../img/tt/1294tt.jpg","","mooney1","image-keyboard-response","75","499752","0.0-2.0-1.12","PG","1","pretest","true","4518715","null","../img/tt/1294tt.jpg","",""
"1616","<p></p>","","recognized","html-keyboard-response","76","501369","0.0-2.0-2.12","PG","1","pretest","true","4518715","89","../img/tt/1294tt.jpg","y",""
"null","../img/gs/1294gs.jpg","","solution","image-keyboard-response","77","503381","0.0-2.0-3.12","PG","1","pretest","true","4518715","null","","",""
"null","../img/tt/1294tt.jpg","","mooney2","image-keyboard-response","78","505387","0.0-2.0-4.12","PG","1","pretest","true","4518715","null","","",""
"5016","<p>How strong was your <strong>aha-experience</strong>?</p>","","aha","html-keyboard-response","79","510403","0.0-2.0-5.12","PG","1","pretest","true","4518715","50","../img/tt/1294tt.jpg","","2"
"null","<div style=""font-size:60px;""> </div>","","fixation","html-keyboard-response","80","510605","0.0-2.0-0.13","PG","1","pretest","true","4518715","null","","",""
"null","../img/tt/1242tt.jpg","","mooney1","image-keyboard-response","81","513616","0.0-2.0-1.13","PG","1","pretest","true","4518715","null","../img/tt/1242tt.jpg","",""
"1244","<p></p>","","recognized","html-keyboard-response","82","514860","0.0-2.0-2.13","PG","1","pretest","true","4518715","78","../img/tt/1242tt.jpg","n",""
"null","../img/gs/1242gs.jpg","","solution","image-keyboard-response","83","516862","0.0-2.0-3.13","PG","1","pretest","true","4518715","null","","",""
"null","../img/tt/1242tt.jpg","","mooney2","image-keyboard-response","84","518869","0.0-2.0-4.13","PG","1","pretest","true","4518715","null","","",""
"2054","<p>How strong was your <strong>aha-experience</strong>?</p>","","aha","html-keyboard-response","85","520924","0.0-2.0-5.13","PG","1","pretest","true","4518715","49","../img/tt/1242tt.jpg","","1"
"null","<div style=""font-size:60px;""> </div>","","fixation","html-keyboard-response","86","521127","0.0-2.0-0.14","PG","1","pretest","true","4518715","null","","",""
"null","../img/tt/1178tt.jpg","","mooney1","image-keyboard-response","87","524131","0.0-2.0-1.14","PG","1","pretest","true","4518715","null","../img/tt/1178tt.jpg","",""
"1311","<p></p>","","recognized","html-keyboard-response","88","525442","0.0-2.0-2.14","PG","1","pretest","true","4518715","89","../img/tt/1178tt.jpg","y",""
"null","../img/gs/1178gs.jpg","","solution","image-keyboard-response","89","527459","0.0-2.0-3.14","PG","1","pretest","true","4518715","null","","",""
"null","../img/tt/1178tt.jpg","","mooney2","image-keyboard-response","90","529474","0.0-2.0-4.14","PG","1","pretest","true","4518715","null","","",""
"1021","<p>How strong was your <strong>aha-experience</strong>?</p>","","aha","html-keyboard-response","91","530495","0.0-2.0-5.14","PG","1","pretest","true","4518715","50","../img/tt/1178tt.jpg","","2"
"null","<div style=""font-size:60px;""> </div>","","fixation","html-keyboard-response","92","530715","0.0-2.0-0.15","PG","1","pretest","true","4518715","null","","",""
"null","../img/tt/1188tt.jpg","","mooney1","image-keyboard-response","93","533725","0.0-2.0-1.15","PG","1","pretest","true","4518715","null","../img/tt/1188tt.jpg","",""
"6523","<p></p>","","recognized","html-keyboard-response","94","540249","0.0-2.0-2.15","PG","1","pretest","true","4518715","89","../img/tt/1188tt.jpg","y",""
"null","../img/gs/1188gs.jpg","","solution","image-keyboard-response","95","542255","0.0-2.0-3.15","PG","1","pretest","true","4518715","null","","",""
"null","../img/tt/1188tt.jpg","","mooney2","image-keyboard-response","96","544259","0.0-2.0-4.15","PG","1","pretest","true","4518715","null","","",""
"1200","<p>How strong was your <strong>aha-experience</strong>?</p>","","aha","html-keyboard-response","97","545460","0.0-2.0-5.15","PG","1","pretest","true","4518715","50","../img/tt/1188tt.jpg","","2"
"null","<div style=""font-size:60px;""> </div>","","fixation","html-keyboard-response","98","545670","0.0-2.0-0.16","PG","1","pretest","true","4518715","null","","",""
"null","../img/tt/1034tt.jpg","","mooney1","image-keyboard-response","99","548683","0.0-2.0-1.16","PG","1","pretest","true","4518715","null","../img/tt/1034tt.jpg","",""
"630","<p></p>","","recognized","html-keyboard-response","100","549314","0.0-2.0-2.16","PG","1","pretest","true","4518715","89","../img/tt/1034tt.jpg","y",""
"null","../img/gs/1034gs.jpg","","solution","image-keyboard-response","101","551316","0.0-2.0-3.16","PG","1","pretest","true","4518715","null","","",""
"null","../img/tt/1034tt.jpg","","mooney2","image-keyboard-response","102","553322","0.0-2.0-4.16","PG","1","pretest","true","4518715","null","","",""
"2616","<p>How strong was your <strong>aha-experience</strong>?</p>","","aha","html-keyboard-response","103","555939","0.0-2.0-5.16","PG","1","pretest","true","4518715","50","../img/tt/1034tt.jpg","","2"
"null","<div style=""font-size:60px;""> </div>","","fixation","html-keyboard-response","104","556152","0.0-2.0-0.17","PG","1","pretest","true","4518715","null","","",""
"null","../img/tt/1036tt.jpg","","mooney1","image-keyboard-response","105","559163","0.0-2.0-1.17","PG","1","pretest","true","4518715","null","../img/tt/1036tt.jpg","",""
"9521","<p></p>","","recognized","html-keyboard-response","106","568686","0.0-2.0-2.17","PG","1","pretest","true","4518715","89","../img/tt/1036tt.jpg","y",""
"null","../img/gs/1036gs.jpg","","solution","image-keyboard-response","107","570700","0.0-2.0-3.17","PG","1","pretest","true","4518715","null","","",""
"null","../img/tt/1036tt.jpg","","mooney2","image-keyboard-response","108","572707","0.0-2.0-4.17","PG","1","pretest","true","4518715","null","","",""
"1679","<p>How strong was your <strong>aha-experience</strong>?</p>","","aha","html-keyboard-response","109","574387","0.0-2.0-5.17","PG","1","pretest","true","4518715","51","../img/tt/1036tt.jpg","","3"
"null","<div style=""font-size:60px;""> </div>","","fixation","html-keyboard-response","110","574599","0.0-2.0-0.18","PG","1","pretest","true","4518715","null","","",""
"null","../img/tt/1223tt.jpg","","mooney1","image-keyboard-response","111","577605","0.0-2.0-1.18","PG","1","pretest","true","4518715","null","../img/tt/1223tt.jpg","",""
"2808","<p></p>","","recognized","html-keyboard-response","112","580413","0.0-2.0-2.18","PG","1","pretest","true","4518715","78","../img/tt/1223tt.jpg","n",""
"null","../img/gs/1223gs.jpg","","solution","image-keyboard-response","113","582422","0.0-2.0-3.18","PG","1","pretest","true","4518715","null","","",""
"null","../img/tt/1223tt.jpg","","mooney2","image-keyboard-response","114","584424","0.0-2.0-4.18","PG","1","pretest","true","4518715","null","","",""
"582","<p>How strong was your <strong>aha-experience</strong>?</p>","","aha","html-keyboard-response","115","585007","0.0-2.0-5.18","PG","1","pretest","true","4518715","50","../img/tt/1223tt.jpg","","2"
"null","<div style=""font-size:60px;""> </div>","","fixation","html-keyboard-response","116","585222","0.0-2.0-0.19","PG","1","pretest","true","4518715","null","","",""
"null","../img/tt/1186tt.jpg","","mooney1","image-keyboard-response","117","588235","0.0-2.0-1.19","PG","1","pretest","true","4518715","null","../img/tt/1186tt.jpg","",""
"2150","<p></p>","","recognized","html-keyboard-response","118","590385","0.0-2.0-2.19","PG","1","pretest","true","4518715","78","../img/tt/1186tt.jpg","n",""
"null","../img/gs/1186gs.jpg","","solution","image-keyboard-response","119","592393","0.0-2.0-3.19","PG","1","pretest","true","4518715","null","","",""
"null","../img/tt/1186tt.jpg","","mooney2","image-keyboard-response","120","594400","0.0-2.0-4.19","PG","1","pretest","true","4518715","null","","",""
"1404","<p>How strong was your <strong>aha-experience</strong>?</p>","","aha","html-keyboard-response","121","595805","0.0-2.0-5.19","PG","1","pretest","true","4518715","50","../img/tt/1186tt.jpg","","2"
"null","<div style=""font-size:60px;""> </div>","","fixation","html-keyboard-response","122","596017","0.0-2.0-0.20","PG","1","pretest","true","4518715","null","","",""
"null","../img/tt/1074tt.jpg","","mooney1","image-keyboard-response","123","599030","0.0-2.0-1.20","PG","1","pretest","true","4518715","null","../img/tt/1074tt.jpg","",""
"2418","<p></p>","","recognized","html-keyboard-response","124","601448","0.0-2.0-2.20","PG","1","pretest","true","4518715","89","../img/tt/1074tt.jpg","y",""
"null","../img/gs/1074gs.jpg","","solution","image-keyboard-response","125","603458","0.0-2.0-3.20","PG","1","pretest","true","4518715","null","","",""
"null","../img/tt/1074tt.jpg","","mooney2","image-keyboard-response","126","605473","0.0-2.0-4.20","PG","1","pretest","true","4518715","null","","",""
"1500","<p>How strong was your <strong>aha-experience</strong>?</p>","","aha","html-keyboard-response","127","606974","0.0-2.0-5.20","PG","1","pretest","true","4518715","53","../img/tt/1074tt.jpg","","5"
"null","<div style=""font-size:60px;""> </div>","","fixation","html-keyboard-response","128","607184","0.0-2.0-0.21","PG","1","pretest","true","4518715","null","","",""
"null","../img/tt/1164tt.jpg","","mooney1","image-keyboard-response","129","610187","0.0-2.0-1.21","PG","1","pretest","true","4518715","null","../img/tt/1164tt.jpg","",""
"1258","<p></p>","","recognized","html-keyboard-response","130","611445","0.0-2.0-2.21","PG","1","pretest","true","4518715","78","../img/tt/1164tt.jpg","n",""
"null","../img/gs/1164gs.jpg","","solution","image-keyboard-response","131","613451","0.0-2.0-3.21","PG","1","pretest","true","4518715","null","","",""
"null","../img/tt/1164tt.jpg","","mooney2","image-keyboard-response","132","615458","0.0-2.0-4.21","PG","1","pretest","true","4518715","null","","",""
"1511","<p>How strong was your <strong>aha-experience</strong>?</p>","","aha","html-keyboard-response","133","616969","0.0-2.0-5.21","PG","1","pretest","true","4518715","49","../img/tt/1164tt.jpg","","1"
"null","<div style=""font-size:60px;""> </div>","","fixation","html-keyboard-response","134","617176","0.0-2.0-0.22","PG","1","pretest","true","4518715","null","","",""
"null","../img/tt/096tt.jpg","","mooney1","image-keyboard-response","135","620188","0.0-2.0-1.22","PG","1","pretest","true","4518715","null","../img/tt/096tt.jpg","",""
"1294","<p></p>","","recognized","html-keyboard-response","136","621483","0.0-2.0-2.22","PG","1","pretest","true","4518715","78","../img/tt/096tt.jpg","n",""
"null","../img/gs/096gs.jpg","","solution","image-keyboard-response","137","623499","0.0-2.0-3.22","PG","1","pretest","true","4518715","null","","",""
"null","../img/tt/096tt.jpg","","mooney2","image-keyboard-response","138","625506","0.0-2.0-4.22","PG","1","pretest","true","4518715","null","","",""
"3642","<p>How strong was your <strong>aha-experience</strong>?</p>","","aha","html-keyboard-response","139","629149","0.0-2.0-5.22","PG","1","pretest","true","4518715","54","../img/tt/096tt.jpg","","6"
"null","<div style=""font-size:60px;""> </div>","","fixation","html-keyboard-response","140","629364","0.0-2.0-0.23","PG","1","pretest","true","4518715","null","","",""
"null","../img/tt/1173tt.jpg","","mooney1","image-keyboard-response","141","632368","0.0-2.0-1.23","PG","1","pretest","true","4518715","null","../img/tt/1173tt.jpg","",""
"4010","<p></p>","","recognized","html-keyboard-response","142","636378","0.0-2.0-2.23","PG","1","pretest","true","4518715","78","../img/tt/1173tt.jpg","n",""
"null","../img/gs/1173gs.jpg","","solution","image-keyboard-response","143","638387","0.0-2.0-3.23","PG","1","pretest","true","4518715","null","","",""
"null","../img/tt/1173tt.jpg","","mooney2","image-keyboard-response","144","640392","0.0-2.0-4.23","PG","1","pretest","true","4518715","null","","",""
"7095","<p>How strong was your <strong>aha-experience</strong>?</p>","","aha","html-keyboard-response","145","647489","0.0-2.0-5.23","PG","1","pretest","true","4518715","53","../img/tt/1173tt.jpg","","5"
"null","<div style=""font-size:60px;""> </div>","","fixation","html-keyboard-response","146","647704","0.0-2.0-0.24","PG","1","pretest","true","4518715","null","","",""
"null","../img/tt/1065tt.jpg","","mooney1","image-keyboard-response","147","650719","0.0-2.0-1.24","PG","1","pretest","true","4518715","null","../img/tt/1065tt.jpg","",""
"1085","<p></p>","","recognized","html-keyboard-response","148","651805","0.0-2.0-2.24","PG","1","pretest","true","4518715","78","../img/tt/1065tt.jpg","n",""
"null","../img/gs/1065gs.jpg","","solution","image-keyboard-response","149","653817","0.0-2.0-3.24","PG","1","pretest","true","4518715","null","","",""
"null","../img/tt/1065tt.jpg","","mooney2","image-keyboard-response","150","655819","0.0-2.0-4.24","PG","1","pretest","true","4518715","null","","",""
"1663","<p>How strong was your <strong>aha-experience</strong>?</p>","","aha","html-keyboard-response","151","657482","0.0-2.0-5.24","PG","1","pretest","true","4518715","50","../img/tt/1065tt.jpg","","2"
"null","<div style=""font-size:60px;""> </div>","","fixation","html-keyboard-response","152","657696","0.0-2.0-0.25","PG","1","pretest","true","4518715","null","","",""
"null","../img/tt/046tt.jpg","","mooney1","image-keyboard-response","153","660700","0.0-2.0-1.25","PG","1","pretest","true","4518715","null","../img/tt/046tt.jpg","",""
"1655","<p></p>","","recognized","html-keyboard-response","154","662356","0.0-2.0-2.25","PG","1","pretest","true","4518715","78","../img/tt/046tt.jpg","n",""
"null","../img/gs/046gs.jpg","","solution","image-keyboard-response","155","664368","0.0-2.0-3.25","PG","1","pretest","true","4518715","null","","",""
"null","../img/tt/046tt.jpg","","mooney2","image-keyboard-response","156","666371","0.0-2.0-4.25","PG","1","pretest","true","4518715","null","","",""
"1285","<p>How strong was your <strong>aha-experience</strong>?</p>","","aha","html-keyboard-response","157","667656","0.0-2.0-5.25","PG","1","pretest","true","4518715","49","../img/tt/046tt.jpg","","1"
"null","<div style=""font-size:60px;""> </div>","","fixation","html-keyboard-response","158","667858","0.0-2.0-0.26","PG","1","pretest","true","4518715","null","","",""
"null","../img/tt/1262tt.jpg","","mooney1","image-keyboard-response","159","670872","0.0-2.0-1.26","PG","1","pretest","true","4518715","null","../img/tt/1262tt.jpg","",""
"1269","<p></p>","","recognized","html-keyboard-response","160","672141","0.0-2.0-2.26","PG","1","pretest","true","4518715","78","../img/tt/1262tt.jpg","n",""
"null","../img/gs/1262gs.jpg","","solution","image-keyboard-response","161","674154","0.0-2.0-3.26","PG","1","pretest","true","4518715","null","","",""
"null","../img/tt/1262tt.jpg","","mooney2","image-keyboard-response","162","676170","0.0-2.0-4.26","PG","1","pretest","true","4518715","null","","",""
"262","<p>How strong was your <strong>aha-experience</strong>?</p>","","aha","html-keyboard-response","163","676433","0.0-2.0-5.26","PG","1","pretest","true","4518715","50","../img/tt/1262tt.jpg","","2"
"null","<div style=""font-size:60px;""> </div>","","fixation","html-keyboard-response","164","676647","0.0-2.0-0.27","PG","1","pretest","true","4518715","null","","",""
"null","../img/tt/1003tt.jpg","","mooney1","image-keyboard-response","165","679660","0.0-2.0-1.27","PG","1","pretest","true","4518715","null","../img/tt/1003tt.jpg","",""
"1423","<p></p>","","recognized","html-keyboard-response","166","681083","0.0-2.0-2.27","PG","1","pretest","true","4518715","78","../img/tt/1003tt.jpg","n",""
"null","../img/gs/1003gs.jpg","","solution","image-keyboard-response","167","683088","0.0-2.0-3.27","PG","1","pretest","true","4518715","null","","",""
"null","../img/tt/1003tt.jpg","","mooney2","image-keyboard-response","168","685094","0.0-2.0-4.27","PG","1","pretest","true","4518715","null","","",""
"3712","<p>How strong was your <strong>aha-experience</strong>?</p>","","aha","html-keyboard-response","169","688807","0.0-2.0-5.27","PG","1","pretest","true","4518715","49","../img/tt/1003tt.jpg","","1"
"null","<div style=""font-size:60px;""> </div>","","fixation","html-keyboard-response","170","689018","0.0-2.0-0.28","PG","1","pretest","true","4518715","null","","",""
"null","../img/tt/040tt.jpg","","mooney1","image-keyboard-response","171","692030","0.0-2.0-1.28","PG","1","pretest","true","4518715","null","../img/tt/040tt.jpg","",""
"1624","<p></p>","","recognized","html-keyboard-response","172","693655","0.0-2.0-2.28","PG","1","pretest","true","4518715","78","../img/tt/040tt.jpg","n",""
"null","../img/gs/040gs.jpg","","solution","image-keyboard-response","173","695659","0.0-2.0-3.28","PG","1","pretest","true","4518715","null","","",""
"null","../img/tt/040tt.jpg","","mooney2","image-keyboard-response","174","697665","0.0-2.0-4.28","PG","1","pretest","true","4518715","null","","",""
"1293","<p>How strong was your <strong>aha-experience</strong>?</p>","","aha","html-keyboard-response","175","698958","0.0-2.0-5.28","PG","1","pretest","true","4518715","49","../img/tt/040tt.jpg","","1"
"null","<div style=""font-size:60px;""> </div>","","fixation","html-keyboard-response","176","699168","0.0-2.0-0.29","PG","1","pretest","true","4518715","null","","",""
"null","../img/tt/1017tt.jpg","","mooney1","image-keyboard-response","177","702180","0.0-2.0-1.29","PG","1","pretest","true","4518715","null","../img/tt/1017tt.jpg","",""
"1067","<p></p>","","recognized","html-keyboard-response","178","703249","0.0-2.0-2.29","PG","1","pretest","true","4518715","78","../img/tt/1017tt.jpg","n",""
"null","../img/gs/1017gs.jpg","","solution","image-keyboard-response","179","705264","0.0-2.0-3.29","PG","1","pretest","true","4518715","null","","",""
"null","../img/tt/1017tt.jpg","","mooney2","image-keyboard-response","180","707280","0.0-2.0-4.29","PG","1","pretest","true","4518715","null","","",""
"1620","<p>How strong was your <strong>aha-experience</strong>?</p>","","aha","html-keyboard-response","181","708900","0.0-2.0-5.29","PG","1","pretest","true","4518715","51","../img/tt/1017tt.jpg","","3"
"null","<div style=""font-size:60px;""> </div>","","fixation","html-keyboard-response","182","709109","0.0-2.0-0.30","PG","1","pretest","true","4518715","null","","",""
"null","../img/tt/1105tt.jpg","","mooney1","image-keyboard-response","183","712112","0.0-2.0-1.30","PG","1","pretest","true","4518715","null","../img/tt/1105tt.jpg","",""
"2691","<p></p>","","recognized","html-keyboard-response","184","714804","0.0-2.0-2.30","PG","1","pretest","true","4518715","78","../img/tt/1105tt.jpg","n",""
"null","../img/gs/1105gs.jpg","","solution","image-keyboard-response","185","716813","0.0-2.0-3.30","PG","1","pretest","true","4518715","null","","",""
"null","../img/tt/1105tt.jpg","","mooney2","image-keyboard-response","186","718818","0.0-2.0-4.30","PG","1","pretest","true","4518715","null","","",""
"1971","<p>How strong was your <strong>aha-experience</strong>?</p>","","aha","html-keyboard-response","187","720790","0.0-2.0-5.30","PG","1","pretest","true","4518715","50","../img/tt/1105tt.jpg","","2"
"null","<div style=""font-size:60px;""> </div>","","fixation","html-keyboard-response","188","721000","0.0-2.0-0.31","PG","1","pretest","true","4518715","null","","",""
"null","../img/tt/055tt.jpg","","mooney1","image-keyboard-response","189","724013","0.0-2.0-1.31","PG","1","pretest","true","4518715","null","../img/tt/055tt.jpg","",""
"4411","<p></p>","","recognized","html-keyboard-response","190","728424","0.0-2.0-2.31","PG","1","pretest","true","4518715","78","../img/tt/055tt.jpg","n",""
"null","../img/gs/055gs.jpg","","solution","image-keyboard-response","191","730429","0.0-2.0-3.31","PG","1","pretest","true","4518715","null","","",""
"null","../img/tt/055tt.jpg","","mooney2","image-keyboard-response","192","732446","0.0-2.0-4.31","PG","1","pretest","true","4518715","null","","",""
"2488","<p>How strong was your <strong>aha-experience</strong>?</p>","","aha","html-keyboard-response","193","734935","0.0-2.0-5.31","PG","1","pretest","true","4518715","54","../img/tt/055tt.jpg","","6"
"null","<div style=""font-size:60px;""> </div>","","fixation","html-keyboard-response","194","735154","0.0-2.0-0.32","PG","1","pretest","true","4518715","null","","",""
"null","../img/tt/1083tt.jpg","","mooney1","image-keyboard-response","195","738164","0.0-2.0-1.32","PG","1","pretest","true","4518715","null","../img/tt/1083tt.jpg","",""
"1748","<p></p>","","recognized","html-keyboard-response","196","739912","0.0-2.0-2.32","PG","1","pretest","true","4518715","78","../img/tt/1083tt.jpg","n",""
"null","../img/gs/1083gs.jpg","","solution","image-keyboard-response","197","741928","0.0-2.0-3.32","PG","1","pretest","true","4518715","null","","",""
"null","../img/tt/1083tt.jpg","","mooney2","image-keyboard-response","198","743935","0.0-2.0-4.32","PG","1","pretest","true","4518715","null","","",""
"343","<p>How strong was your <strong>aha-experience</strong>?</p>","","aha","html-keyboard-response","199","744278","0.0-2.0-5.32","PG","1","pretest","true","4518715","49","../img/tt/1083tt.jpg","","1"
"null","<div style=""font-size:60px;""> </div>","","fixation","html-keyboard-response","200","744483","0.0-2.0-0.33","PG","1","pretest","true","4518715","null","","",""
"null","../img/tt/1056tt.jpg","","mooney1","image-keyboard-response","201","747496","0.0-2.0-1.33","PG","1","pretest","true","4518715","null","../img/tt/1056tt.jpg","",""
"2017","<p></p>","","recognized","html-keyboard-response","202","749514","0.0-2.0-2.33","PG","1","pretest","true","4518715","89","../img/tt/1056tt.jpg","y",""
"null","../img/gs/1056gs.jpg","","solution","image-keyboard-response","203","751520","0.0-2.0-3.33","PG","1","pretest","true","4518715","null","","",""
"null","../img/tt/1056tt.jpg","","mooney2","image-keyboard-response","204","753526","0.0-2.0-4.33","PG","1","pretest","true","4518715","null","","",""
"2201","<p>How strong was your <strong>aha-experience</strong>?</p>","","aha","html-keyboard-response","205","755727","0.0-2.0-5.33","PG","1","pretest","true","4518715","53","../img/tt/1056tt.jpg","","5"
"null","<div style=""font-size:60px;""> </div>","","fixation","html-keyboard-response","206","755936","0.0-2.0-0.34","PG","1","pretest","true","4518715","null","","",""
"null","../img/tt/1121tt.jpg","","mooney1","image-keyboard-response","207","758939","0.0-2.0-1.34","PG","1","pretest","true","4518715","null","../img/tt/1121tt.jpg","",""
"1319","<p></p>","","recognized","html-keyboard-response","208","760258","0.0-2.0-2.34","PG","1","pretest","true","4518715","78","../img/tt/1121tt.jpg","n",""
"null","../img/gs/1121gs.jpg","","solution","image-keyboard-response","209","762271","0.0-2.0-3.34","PG","1","pretest","true","4518715","null","","",""
"null","../img/tt/1121tt.jpg","","mooney2","image-keyboard-response","210","764272","0.0-2.0-4.34","PG","1","pretest","true","4518715","null","","",""
"1312","<p>How strong was your <strong>aha-experience</strong>?</p>","","aha","html-keyboard-response","211","765585","0.0-2.0-5.34","PG","1","pretest","true","4518715","50","../img/tt/1121tt.jpg","","2"
"null","<div style=""font-size:60px;""> </div>","","fixation","html-keyboard-response","212","765792","0.0-2.0-0.35","PG","1","pretest","true","4518715","null","","",""
"null","../img/tt/1233tt.jpg","","mooney1","image-keyboard-response","213","768806","0.0-2.0-1.35","PG","1","pretest","true","4518715","null","../img/tt/1233tt.jpg","",""
"2408","<p></p>","","recognized","html-keyboard-response","214","771214","0.0-2.0-2.35","PG","1","pretest","true","4518715","78","../img/tt/1233tt.jpg","n",""
"null","../img/gs/1233gs.jpg","","solution","image-keyboard-response","215","773222","0.0-2.0-3.35","PG","1","pretest","true","4518715","null","","",""
"null","../img/tt/1233tt.jpg","","mooney2","image-keyboard-response","216","775227","0.0-2.0-4.35","PG","1","pretest","true","4518715","null","","",""
"1452","<p>How strong was your <strong>aha-experience</strong>?</p>","","aha","html-keyboard-response","217","776679","0.0-2.0-5.35","PG","1","pretest","true","4518715","50","../img/tt/1233tt.jpg","","2"
"null","<div style=""font-size:60px;""> </div>","","fixation","html-keyboard-response","218","776885","0.0-2.0-0.36","PG","1","pretest","true","4518715","null","","",""
"null","../img/tt/1279tt.jpg","","mooney1","image-keyboard-response","219","779899","0.0-2.0-1.36","PG","1","pretest","true","4518715","null","../img/tt/1279tt.jpg","",""
"5080","<p></p>","","recognized","html-keyboard-response","220","784979","0.0-2.0-2.36","PG","1","pretest","true","4518715","78","../img/tt/1279tt.jpg","n",""
"null","../img/gs/1279gs.jpg","","solution","image-keyboard-response","221","786992","0.0-2.0-3.36","PG","1","pretest","true","4518715","null","","",""
"null","../img/tt/1279tt.jpg","","mooney2","image-keyboard-response","222","788996","0.0-2.0-4.36","PG","1","pretest","true","4518715","null","","",""
"1654","<p>How strong was your <strong>aha-experience</strong>?</p>","","aha","html-keyboard-response","223","790651","0.0-2.0-5.36","PG","1","pretest","true","4518715","50","../img/tt/1279tt.jpg","","2"
"null","<div style=""font-size:60px;""> </div>","","fixation","html-keyboard-response","224","790857","0.0-2.0-0.37","PG","1","pretest","true","4518715","null","","",""
"null","../img/tt/1213tt.jpg","","mooney1","image-keyboard-response","225","793861","0.0-2.0-1.37","PG","1","pretest","true","4518715","null","../img/tt/1213tt.jpg","",""
"2242","<p></p>","","recognized","html-keyboard-response","226","796104","0.0-2.0-2.37","PG","1","pretest","true","4518715","78","../img/tt/1213tt.jpg","n",""
"null","../img/gs/1213gs.jpg","","solution","image-keyboard-response","227","798112","0.0-2.0-3.37","PG","1","pretest","true","4518715","null","","",""
"null","../img/tt/1213tt.jpg","","mooney2","image-keyboard-response","228","800117","0.0-2.0-4.37","PG","1","pretest","true","4518715","null","","",""
"2058","<p>How strong was your <strong>aha-experience</strong>?</p>","","aha","html-keyboard-response","229","802175","0.0-2.0-5.37","PG","1","pretest","true","4518715","49","../img/tt/1213tt.jpg","","1"
"null","<div style=""font-size:60px;""> </div>","","fixation","html-keyboard-response","230","802377","0.0-2.0-0.38","PG","1","pretest","true","4518715","null","","",""
"null","../img/tt/1157tt.jpg","","mooney1","image-keyboard-response","231","805384","0.0-2.0-1.38","PG","1","pretest","true","4518715","null","../img/tt/1157tt.jpg","",""
"2272","<p></p>","","recognized","html-keyboard-response","232","807656","0.0-2.0-2.38","PG","1","pretest","true","4518715","89","../img/tt/1157tt.jpg","y",""
"null","../img/gs/1157gs.jpg","","solution","image-keyboard-response","233","809670","0.0-2.0-3.38","PG","1","pretest","true","4518715","null","","",""
"null","../img/tt/1157tt.jpg","","mooney2","image-keyboard-response","234","811684","0.0-2.0-4.38","PG","1","pretest","true","4518715","null","","",""
"3649","<p>How strong was your <strong>aha-experience</strong>?</p>","","aha","html-keyboard-response","235","815333","0.0-2.0-5.38","PG","1","pretest","true","4518715","53","../img/tt/1157tt.jpg","","5"
"null","<div style=""font-size:60px;""> </div>","","fixation","html-keyboard-response","236","815543","0.0-2.0-0.39","PG","1","pretest","true","4518715","null","","",""
"null","../img/tt/1267tt.jpg","","mooney1","image-keyboard-response","237","818555","0.0-2.0-1.39","PG","1","pretest","true","4518715","null","../img/tt/1267tt.jpg","",""
"1670","<p></p>","","recognized","html-keyboard-response","238","820225","0.0-2.0-2.39","PG","1","pretest","true","4518715","78","../img/tt/1267tt.jpg","n",""
"null","../img/gs/1267gs.jpg","","solution","image-keyboard-response","239","822237","0.0-2.0-3.39","PG","1","pretest","true","4518715","null","","",""
"null","../img/tt/1267tt.jpg","","mooney2","image-keyboard-response","240","824246","0.0-2.0-4.39","PG","1","pretest","true","4518715","null","","",""
"2545","<p>How strong was your <strong>aha-experience</strong>?</p>","","aha","html-keyboard-response","241","826791","0.0-2.0-5.39","PG","1","pretest","true","4518715","50","../img/tt/1267tt.jpg","","2"
"null","<div style=""font-size:60px;""> </div>","","fixation","html-keyboard-response","242","826992","0.0-2.0-0.40","PG","1","pretest","true","4518715","null","","",""
"null","../img/tt/1284tt.jpg","","mooney1","image-keyboard-response","243","829996","0.0-2.0-1.40","PG","1","pretest","true","4518715","null","../img/tt/1284tt.jpg","",""
"1733","<p></p>","","recognized","html-keyboard-response","244","831730","0.0-2.0-2.40","PG","1","pretest","true","4518715","89","../img/tt/1284tt.jpg","y",""
"null","../img/gs/1284gs.jpg","","solution","image-keyboard-response","245","833751","0.0-2.0-3.40","PG","1","pretest","true","4518715","null","","",""
"null","../img/tt/1284tt.jpg","","mooney2","image-keyboard-response","246","835757","0.0-2.0-4.40","PG","1","pretest","true","4518715","null","","",""
"1837","<p>How strong was your <strong>aha-experience</strong>?</p>","","aha","html-keyboard-response","247","837595","0.0-2.0-5.40","PG","1","pretest","true","4518715","50","../img/tt/1284tt.jpg","","2"
"null","<div style=""font-size:60px;""> </div>","","fixation","html-keyboard-response","248","837810","0.0-2.0-0.41","PG","1","pretest","true","4518715","null","","",""
"null","../img/tt/019tt.jpg","","mooney1","image-keyboard-response","249","840819","0.0-2.0-1.41","PG","1","pretest","true","4518715","null","../img/tt/019tt.jpg","",""
"6429","<p></p>","","recognized","html-keyboard-response","250","847248","0.0-2.0-2.41","PG","1","pretest","true","4518715","78","../img/tt/019tt.jpg","n",""
"null","../img/gs/019gs.jpg","","solution","image-keyboard-response","251","849256","0.0-2.0-3.41","PG","1","pretest","true","4518715","null","","",""
"null","../img/tt/019tt.jpg","","mooney2","image-keyboard-response","252","851258","0.0-2.0-4.41","PG","1","pretest","true","4518715","null","","",""
"134","<p>How strong was your <strong>aha-experience</strong>?</p>","","aha","html-keyboard-response","253","851393","0.0-2.0-5.41","PG","1","pretest","true","4518715","54","../img/tt/019tt.jpg","","6"
"null","<div style=""font-size:60px;""> </div>","","fixation","html-keyboard-response","254","851608","0.0-2.0-0.42","PG","1","pretest","true","4518715","null","","",""
"null","../img/tt/044tt.jpg","","mooney1","image-keyboard-response","255","854620","0.0-2.0-1.42","PG","1","pretest","true","4518715","null","../img/tt/044tt.jpg","",""
"1280","<p></p>","","recognized","html-keyboard-response","256","855901","0.0-2.0-2.42","PG","1","pretest","true","4518715","89","../img/tt/044tt.jpg","y",""
"null","../img/gs/044gs.jpg","","solution","image-keyboard-response","257","857916","0.0-2.0-3.42","PG","1","pretest","true","4518715","null","","",""
"null","../img/tt/044tt.jpg","","mooney2","image-keyboard-response","258","859923","0.0-2.0-4.42","PG","1","pretest","true","4518715","null","","",""
"891","<p>How strong was your <strong>aha-experience</strong>?</p>","","aha","html-keyboard-response","259","860814","0.0-2.0-5.42","PG","1","pretest","true","4518715","50","../img/tt/044tt.jpg","","2"
"null","<div style=""font-size:60px;""> </div>","","fixation","html-keyboard-response","260","861029","0.0-2.0-0.43","PG","1","pretest","true","4518715","null","","",""
"null","../img/tt/1185tt.jpg","","mooney1","image-keyboard-response","261","864040","0.0-2.0-1.43","PG","1","pretest","true","4518715","null","../img/tt/1185tt.jpg","",""
"1696","<p></p>","","recognized","html-keyboard-response","262","865738","0.0-2.0-2.43","PG","1","pretest","true","4518715","78","../img/tt/1185tt.jpg","n",""
"null","../img/gs/1185gs.jpg","","solution","image-keyboard-response","263","867750","0.0-2.0-3.43","PG","1","pretest","true","4518715","null","","",""
"null","../img/tt/1185tt.jpg","","mooney2","image-keyboard-response","264","869757","0.0-2.0-4.43","PG","1","pretest","true","4518715","null","","",""
"1303","<p>How strong was your <strong>aha-experience</strong>?</p>","","aha","html-keyboard-response","265","871061","0.0-2.0-5.43","PG","1","pretest","true","4518715","49","../img/tt/1185tt.jpg","","1"
"null","<div style=""font-size:60px;""> </div>","","fixation","html-keyboard-response","266","871266","0.0-2.0-0.44","PG","1","pretest","true","4518715","null","","",""
"null","../img/tt/1169tt.jpg","","mooney1","image-keyboard-response","267","874272","0.0-2.0-1.44","PG","1","pretest","true","4518715","null","../img/tt/1169tt.jpg","",""
"1493","<p></p>","","recognized","html-keyboard-response","268","875765","0.0-2.0-2.44","PG","1","pretest","true","4518715","89","../img/tt/1169tt.jpg","y",""
"null","../img/gs/1169gs.jpg","","solution","image-keyboard-response","269","877782","0.0-2.0-3.44","PG","1","pretest","true","4518715","null","","",""
"null","../img/tt/1169tt.jpg","","mooney2","image-keyboard-response","270","879799","0.0-2.0-4.44","PG","1","pretest","true","4518715","null","","",""
"2746","<p>How strong was your <strong>aha-experience</strong>?</p>","","aha","html-keyboard-response","271","882545","0.0-2.0-5.44","PG","1","pretest","true","4518715","50","../img/tt/1169tt.jpg","","2"
"null","<div style=""font-size:60px;""> </div>","","fixation","html-keyboard-response","272","882749","0.0-2.0-0.45","PG","1","pretest","true","4518715","null","","",""
"null","../img/tt/1097tt.jpg","","mooney1","image-keyboard-response","273","885763","0.0-2.0-1.45","PG","1","pretest","true","4518715","null","../img/tt/1097tt.jpg","",""
"9667","<p></p>","","recognized","html-keyboard-response","274","895430","0.0-2.0-2.45","PG","1","pretest","true","4518715","78","../img/tt/1097tt.jpg","n",""
"null","../img/gs/1097gs.jpg","","solution","image-keyboard-response","275","897446","0.0-2.0-3.45","PG","1","pretest","true","4518715","null","","",""
"null","../img/tt/1097tt.jpg","","mooney2","image-keyboard-response","276","899449","0.0-2.0-4.45","PG","1","pretest","true","4518715","null","","",""
"3954","<p>How strong was your <strong>aha-experience</strong>?</p>","","aha","html-keyboard-response","277","903404","0.0-2.0-5.45","PG","1","pretest","true","4518715","53","../img/tt/1097tt.jpg","","5"
"null","<div style=""font-size:60px;""> </div>","","fixation","html-keyboard-response","278","903616","0.0-2.0-0.46","PG","1","pretest","true","4518715","null","","",""
"null","../img/tt/087tt.jpg","","mooney1","image-keyboard-response","279","906627","0.0-2.0-1.46","PG","1","pretest","true","4518715","null","../img/tt/087tt.jpg","",""
"1314","<p></p>","","recognized","html-keyboard-response","280","907942","0.0-2.0-2.46","PG","1","pretest","true","4518715","89","../img/tt/087tt.jpg","y",""
"null","../img/gs/087gs.jpg","","solution","image-keyboard-response","281","909957","0.0-2.0-3.46","PG","1","pretest","true","4518715","null","","",""
"null","../img/tt/087tt.jpg","","mooney2","image-keyboard-response","282","911968","0.0-2.0-4.46","PG","1","pretest","true","4518715","null","","",""
"7008","<p>How strong was your <strong>aha-experience</strong>?</p>","","aha","html-keyboard-response","283","918978","0.0-2.0-5.46","PG","1","pretest","true","4518715","52","../img/tt/087tt.jpg","","4"
"null","<div style=""font-size:60px;""> </div>","","fixation","html-keyboard-response","284","919182","0.0-2.0-0.47","PG","1","pretest","true","4518715","null","","",""
"null","../img/tt/1117tt.jpg","","mooney1","image-keyboard-response","285","922195","0.0-2.0-1.47","PG","1","pretest","true","4518715","null","../img/tt/1117tt.jpg","",""
"9356","<p></p>","","recognized","html-keyboard-response","286","931551","0.0-2.0-2.47","PG","1","pretest","true","4518715","78","../img/tt/1117tt.jpg","n",""
"null","../img/gs/1117gs.jpg","","solution","image-keyboard-response","287","933564","0.0-2.0-3.47","PG","1","pretest","true","4518715","null","","",""
"null","../img/tt/1117tt.jpg","","mooney2","image-keyboard-response","288","935570","0.0-2.0-4.47","PG","1","pretest","true","4518715","null","","",""
"1682","<p>How strong was your <strong>aha-experience</strong>?</p>","","aha","html-keyboard-response","289","937252","0.0-2.0-5.47","PG","1","pretest","true","4518715","51","../img/tt/1117tt.jpg","","3"
"null","<div style=""font-size:60px;""> </div>","","fixation","html-keyboard-response","290","937453","0.0-2.0-0.48","PG","1","pretest","true","4518715","null","","",""
"null","../img/tt/1146tt.jpg","","mooney1","image-keyboard-response","291","940462","0.0-2.0-1.48","PG","1","pretest","true","4518715","null","../img/tt/1146tt.jpg","",""
"1966","<p></p>","","recognized","html-keyboard-response","292","942429","0.0-2.0-2.48","PG","1","pretest","true","4518715","78","../img/tt/1146tt.jpg","n",""
"null","../img/gs/1146gs.jpg","","solution","image-keyboard-response","293","944444","0.0-2.0-3.48","PG","1","pretest","true","4518715","null","","",""
"null","../img/tt/1146tt.jpg","","mooney2","image-keyboard-response","294","946451","0.0-2.0-4.48","PG","1","pretest","true","4518715","null","","",""
"1034","<p>How strong was your <strong>aha-experience</strong>?</p>","","aha","html-keyboard-response","295","947486","0.0-2.0-5.48","PG","1","pretest","true","4518715","50","../img/tt/1146tt.jpg","","2"
"null","<div style=""font-size:60px;""> </div>","","fixation","html-keyboard-response","296","947691","0.0-2.0-0.49","PG","1","pretest","true","4518715","null","","",""
"null","../img/tt/1119tt.jpg","","mooney1","image-keyboard-response","297","950702","0.0-2.0-1.49","PG","1","pretest","true","4518715","null","../img/tt/1119tt.jpg","",""
"447","<p></p>","","recognized","html-keyboard-response","298","951150","0.0-2.0-2.49","PG","1","pretest","true","4518715","89","../img/tt/1119tt.jpg","y",""
"null","../img/gs/1119gs.jpg","","solution","image-keyboard-response","299","953152","0.0-2.0-3.49","PG","1","pretest","true","4518715","null","","",""
"null","../img/tt/1119tt.jpg","","mooney2","image-keyboard-response","300","955159","0.0-2.0-4.49","PG","1","pretest","true","4518715","null","","",""
"996","<p>How strong was your <strong>aha-experience</strong>?</p>","","aha","html-keyboard-response","301","956155","0.0-2.0-5.49","PG","1","pretest","true","4518715","51","../img/tt/1119tt.jpg","","3"
"null","<div style=""font-size:60px;""> </div>","","fixation","html-keyboard-response","302","956363","0.0-2.0-0.50","PG","1","pretest","true","4518715","null","","",""
"null","../img/tt/1277tt.jpg","","mooney1","image-keyboard-response","303","959375","0.0-2.0-1.50","PG","1","pretest","true","4518715","null","../img/tt/1277tt.jpg","",""
"1160","<p></p>","","recognized","html-keyboard-response","304","960535","0.0-2.0-2.50","PG","1","pretest","true","4518715","78","../img/tt/1277tt.jpg","n",""
"null","../img/gs/1277gs.jpg","","solution","image-keyboard-response","305","962539","0.0-2.0-3.50","PG","1","pretest","true","4518715","null","","",""
"null","../img/tt/1277tt.jpg","","mooney2","image-keyboard-response","306","964544","0.0-2.0-4.50","PG","1","pretest","true","4518715","null","","",""
"1403","<p>How strong was your <strong>aha-experience</strong>?</p>","","aha","html-keyboard-response","307","965947","0.0-2.0-5.50","PG","1","pretest","true","4518715","49","../img/tt/1277tt.jpg","","1"
"null","<div style=""font-size:60px;""> </div>","","fixation","html-keyboard-response","308","966154","0.0-2.0-0.51","PG","1","pretest","true","4518715","null","","",""
"null","../img/tt/1271tt.jpg","","mooney1","image-keyboard-response","309","969165","0.0-2.0-1.51","PG","1","pretest","true","4518715","null","../img/tt/1271tt.jpg","",""
"1827","<p></p>","","recognized","html-keyboard-response","310","970992","0.0-2.0-2.51","PG","1","pretest","true","4518715","78","../img/tt/1271tt.jpg","n",""
"null","../img/gs/1271gs.jpg","","solution","image-keyboard-response","311","973008","0.0-2.0-3.51","PG","1","pretest","true","4518715","null","","",""
"null","../img/tt/1271tt.jpg","","mooney2","image-keyboard-response","312","975023","0.0-2.0-4.51","PG","1","pretest","true","4518715","null","","",""
"632","<p>How strong was your <strong>aha-experience</strong>?</p>","","aha","html-keyboard-response","313","975656","0.0-2.0-5.51","PG","1","pretest","true","4518715","49","../img/tt/1271tt.jpg","","1"
"null","<div style=""font-size:60px;""> </div>","","fixation","html-keyboard-response","314","975866","0.0-2.0-0.52","PG","1","pretest","true","4518715","null","","",""
"null","../img/tt/026tt.jpg","","mooney1","image-keyboard-response","315","978882","0.0-2.0-1.52","PG","1","pretest","true","4518715","null","../img/tt/026tt.jpg","",""
"1920","<p></p>","","recognized","html-keyboard-response","316","980804","0.0-2.0-2.52","PG","1","pretest","true","4518715","89","../img/tt/026tt.jpg","y",""
"null","../img/gs/026gs.jpg","","solution","image-keyboard-response","317","982817","0.0-2.0-3.52","PG","1","pretest","true","4518715","null","","",""
"null","../img/tt/026tt.jpg","","mooney2","image-keyboard-response","318","984831","0.0-2.0-4.52","PG","1","pretest","true","4518715","null","","",""
"3297","<p>How strong was your <strong>aha-experience</strong>?</p>","","aha","html-keyboard-response","319","988129","0.0-2.0-5.52","PG","1","pretest","true","4518715","50","../img/tt/026tt.jpg","","2"
"null","<div style=""font-size:60px;""> </div>","","fixation","html-keyboard-response","320","988339","0.0-2.0-0.53","PG","1","pretest","true","4518715","null","","",""
"null","../img/tt/1077tt.jpg","","mooney1","image-keyboard-response","321","991354","0.0-2.0-1.53","PG","1","pretest","true","4518715","null","../img/tt/1077tt.jpg","",""
"1406","<p></p>","","recognized","html-keyboard-response","322","992760","0.0-2.0-2.53","PG","1","pretest","true","4518715","78","../img/tt/1077tt.jpg","n",""
"null","../img/gs/1077gs.jpg","","solution","image-keyboard-response","323","994770","0.0-2.0-3.53","PG","1","pretest","true","4518715","null","","",""
"null","../img/tt/1077tt.jpg","","mooney2","image-keyboard-response","324","996786","0.0-2.0-4.53","PG","1","pretest","true","4518715","null","","",""
"3703","<p>How strong was your <strong>aha-experience</strong>?</p>","","aha","html-keyboard-response","325","1000489","0.0-2.0-5.53","PG","1","pretest","true","4518715","53","../img/tt/1077tt.jpg","","5"
"null","<div style=""font-size:60px;""> </div>","","fixation","html-keyboard-response","326","1000698","0.0-2.0-0.54","PG","1","pretest","true","4518715","null","","",""
"null","../img/tt/1006tt.jpg","","mooney1","image-keyboard-response","327","1003709","0.0-2.0-1.54","PG","1","pretest","true","4518715","null","../img/tt/1006tt.jpg","",""
"2201","<p></p>","","recognized","html-keyboard-response","328","1005912","0.0-2.0-2.54","PG","1","pretest","true","4518715","78","../img/tt/1006tt.jpg","n",""
"null","../img/gs/1006gs.jpg","","solution","image-keyboard-response","329","1007925","0.0-2.0-3.54","PG","1","pretest","true","4518715","null","","",""
"null","../img/tt/1006tt.jpg","","mooney2","image-keyboard-response","330","1009932","0.0-2.0-4.54","PG","1","pretest","true","4518715","null","","",""
"1955","<p>How strong was your <strong>aha-experience</strong>?</p>","","aha","html-keyboard-response","331","1011888","0.0-2.0-5.54","PG","1","pretest","true","4518715","52","../img/tt/1006tt.jpg","","4"
"null","<div style=""font-size:60px;""> </div>","","fixation","html-keyboard-response","332","1012097","0.0-2.0-0.55","PG","1","pretest","true","4518715","null","","",""
"null","../img/tt/1288tt.jpg","","mooney1","image-keyboard-response","333","1015101","0.0-2.0-1.55","PG","1","pretest","true","4518715","null","../img/tt/1288tt.jpg","",""
"1399","<p></p>","","recognized","html-keyboard-response","334","1016500","0.0-2.0-2.55","PG","1","pretest","true","4518715","89","../img/tt/1288tt.jpg","y",""
"null","../img/gs/1288gs.jpg","","solution","image-keyboard-response","335","1018502","0.0-2.0-3.55","PG","1","pretest","true","4518715","null","","",""
"null","../img/tt/1288tt.jpg","","mooney2","image-keyboard-response","336","1020511","0.0-2.0-4.55","PG","1","pretest","true","4518715","null","","",""
"1170","<p>How strong was your <strong>aha-experience</strong>?</p>","","aha","html-keyboard-response","337","1021682","0.0-2.0-5.55","PG","1","pretest","true","4518715","53","../img/tt/1288tt.jpg","","5"
"null","<div style=""font-size:60px;""> </div>","","fixation","html-keyboard-response","338","1021889","0.0-2.0-0.56","PG","1","pretest","true","4518715","null","","",""
"null","../img/tt/127tt.jpg","","mooney1","image-keyboard-response","339","1024903","0.0-2.0-1.56","PG","1","pretest","true","4518715","null","../img/tt/127tt.jpg","",""
"1224","<p></p>","","recognized","html-keyboard-response","340","1026127","0.0-2.0-2.56","PG","1","pretest","true","4518715","78","../img/tt/127tt.jpg","n",""
"null","../img/gs/127gs.jpg","","solution","image-keyboard-response","341","1028131","0.0-2.0-3.56","PG","1","pretest","true","4518715","null","","",""
"null","../img/tt/127tt.jpg","","mooney2","image-keyboard-response","342","1030136","0.0-2.0-4.56","PG","1","pretest","true","4518715","null","","",""
"800","<p>How strong was your <strong>aha-experience</strong>?</p>","","aha","html-keyboard-response","343","1030938","0.0-2.0-5.56","PG","1","pretest","true","4518715","50","../img/tt/127tt.jpg","","2"
"null","<div style=""font-size:60px;""> </div>","","fixation","html-keyboard-response","344","1031144","0.0-2.0-0.57","PG","1","pretest","true","4518715","null","","",""
"null","../img/tt/008tt.jpg","","mooney1","image-keyboard-response","345","1034154","0.0-2.0-1.57","PG","1","pretest","true","4518715","null","../img/tt/008tt.jpg","",""
"1535","<p></p>","","recognized","html-keyboard-response","346","1035690","0.0-2.0-2.57","PG","1","pretest","true","4518715","89","../img/tt/008tt.jpg","y",""
"null","../img/gs/008gs.jpg","","solution","image-keyboard-response","347","1037703","0.0-2.0-3.57","PG","1","pretest","true","4518715","null","","",""
"null","../img/tt/008tt.jpg","","mooney2","image-keyboard-response","348","1039710","0.0-2.0-4.57","PG","1","pretest","true","4518715","null","","",""
"2228","<p>How strong was your <strong>aha-experience</strong>?</p>","","aha","html-keyboard-response","349","1041938","0.0-2.0-5.57","PG","1","pretest","true","4518715","51","../img/tt/008tt.jpg","","3"
"null","<div style=""font-size:60px;""> </div>","","fixation","html-keyboard-response","350","1042139","0.0-2.0-0.58","PG","1","pretest","true","4518715","null","","",""
"null","../img/tt/1066tt.jpg","","mooney1","image-keyboard-response","351","1045150","0.0-2.0-1.58","PG","1","pretest","true","4518715","null","../img/tt/1066tt.jpg","",""
"1794","<p></p>","","recognized","html-keyboard-response","352","1046945","0.0-2.0-2.58","PG","1","pretest","true","4518715","78","../img/tt/1066tt.jpg","n",""
"null","../img/gs/1066gs.jpg","","solution","image-keyboard-response","353","1048959","0.0-2.0-3.58","PG","1","pretest","true","4518715","null","","",""
"null","../img/tt/1066tt.jpg","","mooney2","image-keyboard-response","354","1050966","0.0-2.0-4.58","PG","1","pretest","true","4518715","null","","",""
"513","<p>How strong was your <strong>aha-experience</strong>?</p>","","aha","html-keyboard-response","355","1051479","0.0-2.0-5.58","PG","1","pretest","true","4518715","49","../img/tt/1066tt.jpg","","1"
"null","<div style=""font-size:60px;""> </div>","","fixation","html-keyboard-response","356","1051691","0.0-2.0-0.59","PG","1","pretest","true","4518715","null","","",""
"null","../img/tt/1123tt.jpg","","mooney1","image-keyboard-response","357","1054703","0.0-2.0-1.59","PG","1","pretest","true","4518715","null","../img/tt/1123tt.jpg","",""
"1434","<p></p>","","recognized","html-keyboard-response","358","1056137","0.0-2.0-2.59","PG","1","pretest","true","4518715","89","../img/tt/1123tt.jpg","y",""
"null","../img/gs/1123gs.jpg","","solution","image-keyboard-response","359","1058152","0.0-2.0-3.59","PG","1","pretest","true","4518715","null","","",""
"null","../img/tt/1123tt.jpg","","mooney2","image-keyboard-response","360","1060162","0.0-2.0-4.59","PG","1","pretest","true","4518715","null","","",""
"2357","<p>How strong was your <strong>aha-experience</strong>?</p>","","aha","html-keyboard-response","361","1062519","0.0-2.0-5.59","PG","1","pretest","true","4518715","51","../img/tt/1123tt.jpg","","3"
"null","<div style=""font-size:60px;""> </div>","","fixation","html-keyboard-response","362","1062735","0.0-2.0-0.60","PG","1","pretest","true","4518715","null","","",""
"null","../img/tt/1236tt.jpg","","mooney1","image-keyboard-response","363","1065746","0.0-2.0-1.60","PG","1","pretest","true","4518715","null","../img/tt/1236tt.jpg","",""
"2407","<p></p>","","recognized","html-keyboard-response","364","1068153","0.0-2.0-2.60","PG","1","pretest","true","4518715","78","../img/tt/1236tt.jpg","n",""
"null","../img/gs/1236gs.jpg","","solution","image-keyboard-response","365","1070164","0.0-2.0-3.60","PG","1","pretest","true","4518715","null","","",""
"null","../img/tt/1236tt.jpg","","mooney2","image-keyboard-response","366","1072168","0.0-2.0-4.60","PG","1","pretest","true","4518715","null","","",""
"2609","<p>How strong was your <strong>aha-experience</strong>?</p>","","aha","html-keyboard-response","367","1074778","0.0-2.0-5.60","PG","1","pretest","true","4518715","51","../img/tt/1236tt.jpg","","3"
"null","<div style=""font-size:60px;""> </div>","","fixation","html-keyboard-response","368","1074993","0.0-2.0-0.61","PG","1","pretest","true","4518715","null","","",""
"null","../img/tt/1243tt.jpg","","mooney1","image-keyboard-response","369","1078002","0.0-2.0-1.61","PG","1","pretest","true","4518715","null","../img/tt/1243tt.jpg","",""
"1728","<p></p>","","recognized","html-keyboard-response","370","1079730","0.0-2.0-2.61","PG","1","pretest","true","4518715","78","../img/tt/1243tt.jpg","n",""
"null","../img/gs/1243gs.jpg","","solution","image-keyboard-response","371","1081745","0.0-2.0-3.61","PG","1","pretest","true","4518715","null","","",""
"null","../img/tt/1243tt.jpg","","mooney2","image-keyboard-response","372","1083752","0.0-2.0-4.61","PG","1","pretest","true","4518715","null","","",""
"2302","<p>How strong was your <strong>aha-experience</strong>?</p>","","aha","html-keyboard-response","373","1086054","0.0-2.0-5.61","PG","1","pretest","true","4518715","52","../img/tt/1243tt.jpg","","4"
"null","<div style=""font-size:60px;""> </div>","","fixation","html-keyboard-response","374","1086266","0.0-2.0-0.62","PG","1","pretest","true","4518715","null","","",""
"null","../img/tt/090tt.jpg","","mooney1","image-keyboard-response","375","1089277","0.0-2.0-1.62","PG","1","pretest","true","4518715","null","../img/tt/090tt.jpg","",""
"1269","<p></p>","","recognized","html-keyboard-response","376","1090546","0.0-2.0-2.62","PG","1","pretest","true","4518715","89","../img/tt/090tt.jpg","y",""
"null","../img/gs/090gs.jpg","","solution","image-keyboard-response","377","1092562","0.0-2.0-3.62","PG","1","pretest","true","4518715","null","","",""
"null","../img/tt/090tt.jpg","","mooney2","image-keyboard-response","378","1094564","0.0-2.0-4.62","PG","1","pretest","true","4518715","null","","",""
"477","<p>How strong was your <strong>aha-experience</strong>?</p>","","aha","html-keyboard-response","379","1095042","0.0-2.0-5.62","PG","1","pretest","true","4518715","53","../img/tt/090tt.jpg","","5"
"null","<div style=""font-size:60px;""> </div>","","fixation","html-keyboard-response","380","1095254","0.0-2.0-0.63","PG","1","pretest","true","4518715","null","","",""
"null","../img/tt/1140tt.jpg","","mooney1","image-keyboard-response","381","1098270","0.0-2.0-1.63","PG","1","pretest","true","4518715","null","../img/tt/1140tt.jpg","",""
"986","<p></p>","","recognized","html-keyboard-response","382","1099256","0.0-2.0-2.63","PG","1","pretest","true","4518715","89","../img/tt/1140tt.jpg","y",""
"null","../img/gs/1140gs.jpg","","solution","image-keyboard-response","383","1101263","0.0-2.0-3.63","PG","1","pretest","true","4518715","null","","",""
"null","../img/tt/1140tt.jpg","","mooney2","image-keyboard-response","384","1103270","0.0-2.0-4.63","PG","1","pretest","true","4518715","null","","",""
"2808","<p>How strong was your <strong>aha-experience</strong>?</p>","","aha","html-keyboard-response","385","1106079","0.0-2.0-5.63","PG","1","pretest","true","4518715","50","../img/tt/1140tt.jpg","","2"
"null","<div style=""font-size:60px;""> </div>","","fixation","html-keyboard-response","386","1106283","0.0-2.0-0.64","PG","1","pretest","true","4518715","null","","",""
"null","../img/tt/1021tt.jpg","","mooney1","image-keyboard-response","387","1109295","0.0-2.0-1.64","PG","1","pretest","true","4518715","null","../img/tt/1021tt.jpg","",""
"2176","<p></p>","","recognized","html-keyboard-response","388","1111471","0.0-2.0-2.64","PG","1","pretest","true","4518715","89","../img/tt/1021tt.jpg","y",""
"null","../img/gs/1021gs.jpg","","solution","image-keyboard-response","389","1113478","0.0-2.0-3.64","PG","1","pretest","true","4518715","null","","",""
"null","../img/tt/1021tt.jpg","","mooney2","image-keyboard-response","390","1115491","0.0-2.0-4.64","PG","1","pretest","true","4518715","null","","",""
"1057","<p>How strong was your <strong>aha-experience</strong>?</p>","","aha","html-keyboard-response","391","1116549","0.0-2.0-5.64","PG","1","pretest","true","4518715","54","../img/tt/1021tt.jpg","","6"
"null","<div style=""font-size:60px;""> </div>","","fixation","html-keyboard-response","392","1116762","0.0-2.0-0.65","PG","1","pretest","true","4518715","null","","",""
"null","../img/tt/1270tt.jpg","","mooney1","image-keyboard-response","393","1119775","0.0-2.0-1.65","PG","1","pretest","true","4518715","null","../img/tt/1270tt.jpg","",""
"1457","<p></p>","","recognized","html-keyboard-response","394","1121232","0.0-2.0-2.65","PG","1","pretest","true","4518715","78","../img/tt/1270tt.jpg","n",""
"null","../img/gs/1270gs.jpg","","solution","image-keyboard-response","395","1123237","0.0-2.0-3.65","PG","1","pretest","true","4518715","null","","",""
"null","../img/tt/1270tt.jpg","","mooney2","image-keyboard-response","396","1125243","0.0-2.0-4.65","PG","1","pretest","true","4518715","null","","",""
"368","<p>How strong was your <strong>aha-experience</strong>?</p>","","aha","html-keyboard-response","397","1125612","0.0-2.0-5.65","PG","1","pretest","true","4518715","49","../img/tt/1270tt.jpg","","1"
"null","<div style=""font-size:60px;""> </div>","","fixation","html-keyboard-response","398","1125818","0.0-2.0-0.66","PG","1","pretest","true","4518715","null","","",""
"null","../img/tt/1175tt.jpg","","mooney1","image-keyboard-response","399","1128829","0.0-2.0-1.66","PG","1","pretest","true","4518715","null","../img/tt/1175tt.jpg","",""
"1020","<p></p>","","recognized","html-keyboard-response","400","1129850","0.0-2.0-2.66","PG","1","pretest","true","4518715","78","../img/tt/1175tt.jpg","n",""
"null","../img/gs/1175gs.jpg","","solution","image-keyboard-response","401","1131862","0.0-2.0-3.66","PG","1","pretest","true","4518715","null","","",""
"null","../img/tt/1175tt.jpg","","mooney2","image-keyboard-response","402","1133868","0.0-2.0-4.66","PG","1","pretest","true","4518715","null","","",""
"513","<p>How strong was your <strong>aha-experience</strong>?</p>","","aha","html-keyboard-response","403","1134382","0.0-2.0-5.66","PG","1","pretest","true","4518715","49","../img/tt/1175tt.jpg","","1"
"null","<div style=""font-size:60px;""> </div>","","fixation","html-keyboard-response","404","1134586","0.0-2.0-0.67","PG","1","pretest","true","4518715","null","","",""
"null","../img/tt/103tt.jpg","","mooney1","image-keyboard-response","405","1137595","0.0-2.0-1.67","PG","1","pretest","true","4518715","null","../img/tt/103tt.jpg","",""
"2746","<p></p>","","recognized","html-keyboard-response","406","1140342","0.0-2.0-2.67","PG","1","pretest","true","4518715","78","../img/tt/103tt.jpg","n",""
"null","../img/gs/103gs.jpg","","solution","image-keyboard-response","407","1142358","0.0-2.0-3.67","PG","1","pretest","true","4518715","null","","",""
"null","../img/tt/103tt.jpg","","mooney2","image-keyboard-response","408","1144363","0.0-2.0-4.67","PG","1","pretest","true","4518715","null","","",""
"684","<p>How strong was your <strong>aha-experience</strong>?</p>","","aha","html-keyboard-response","409","1145048","0.0-2.0-5.67","PG","1","pretest","true","4518715","49","../img/tt/103tt.jpg","","1"
"null","<div style=""font-size:60px;""> </div>","","fixation","html-keyboard-response","410","1145254","0.0-2.0-0.68","PG","1","pretest","true","4518715","null","","",""
"null","../img/tt/1122tt.jpg","","mooney1","image-keyboard-response","411","1148266","0.0-2.0-1.68","PG","1","pretest","true","4518715","null","../img/tt/1122tt.jpg","",""
"1188","<p></p>","","recognized","html-keyboard-response","412","1149454","0.0-2.0-2.68","PG","1","pretest","true","4518715","89","../img/tt/1122tt.jpg","y",""
"null","../img/gs/1122gs.jpg","","solution","image-keyboard-response","413","1151463","0.0-2.0-3.68","PG","1","pretest","true","4518715","null","","",""
"null","../img/tt/1122tt.jpg","","mooney2","image-keyboard-response","414","1153469","0.0-2.0-4.68","PG","1","pretest","true","4518715","null","","",""
"2932","<p>How strong was your <strong>aha-experience</strong>?</p>","","aha","html-keyboard-response","415","1156401","0.0-2.0-5.68","PG","1","pretest","true","4518715","53","../img/tt/1122tt.jpg","","5"
"null","<div style=""font-size:60px;""> </div>","","fixation","html-keyboard-response","416","1156612","0.0-2.0-0.69","PG","1","pretest","true","4518715","null","","",""
"null","../img/tt/1096tt.jpg","","mooney1","image-keyboard-response","417","1159625","0.0-2.0-1.69","PG","1","pretest","true","4518715","null","../img/tt/1096tt.jpg","",""
"986","<p></p>","","recognized","html-keyboard-response","418","1160611","0.0-2.0-2.69","PG","1","pretest","true","4518715","78","../img/tt/1096tt.jpg","n",""
"null","../img/gs/1096gs.jpg","","solution","image-keyboard-response","419","1162625","0.0-2.0-3.69","PG","1","pretest","true","4518715","null","","",""
"null","../img/tt/1096tt.jpg","","mooney2","image-keyboard-response","420","1164628","0.0-2.0-4.69","PG","1","pretest","true","4518715","null","","",""
"1776","<p>How strong was your <strong>aha-experience</strong>?</p>","","aha","html-keyboard-response","421","1166404","0.0-2.0-5.69","PG","1","pretest","true","4518715","51","../img/tt/1096tt.jpg","","3"
"null","<div style=""font-size:60px;""> </div>","","fixation","html-keyboard-response","422","1166618","0.0-2.0-0.70","PG","1","pretest","true","4518715","null","","",""
"null","../img/tt/037tt.jpg","","mooney1","image-keyboard-response","423","1169625","0.0-2.0-1.70","PG","1","pretest","true","4518715","null","../img/tt/037tt.jpg","",""
"931","<p></p>","","recognized","html-keyboard-response","424","1170556","0.0-2.0-2.70","PG","1","pretest","true","4518715","78","../img/tt/037tt.jpg","n",""
"null","../img/gs/037gs.jpg","","solution","image-keyboard-response","425","1172572","0.0-2.0-3.70","PG","1","pretest","true","4518715","null","","",""
"null","../img/tt/037tt.jpg","","mooney2","image-keyboard-response","426","1174573","0.0-2.0-4.70","PG","1","pretest","true","4518715","null","","",""
"1733","<p>How strong was your <strong>aha-experience</strong>?</p>","","aha","html-keyboard-response","427","1176306","0.0-2.0-5.70","PG","1","pretest","true","4518715","49","../img/tt/037tt.jpg","","1"
"null","<div style=""font-size:60px;""> </div>","","fixation","html-keyboard-response","428","1176520","0.0-2.0-0.71","PG","1","pretest","true","4518715","null","","",""
"null","../img/tt/1199tt.jpg","","mooney1","image-keyboard-response","429","1179525","0.0-2.0-1.71","PG","1","pretest","true","4518715","null","../img/tt/1199tt.jpg","",""
"1371","<p></p>","","recognized","html-keyboard-response","430","1180896","0.0-2.0-2.71","PG","1","pretest","true","4518715","78","../img/tt/1199tt.jpg","n",""
"null","../img/gs/1199gs.jpg","","solution","image-keyboard-response","431","1182908","0.0-2.0-3.71","PG","1","pretest","true","4518715","null","","",""
"null","../img/tt/1199tt.jpg","","mooney2","image-keyboard-response","432","1184924","0.0-2.0-4.71","PG","1","pretest","true","4518715","null","","",""
"341","<p>How strong was your <strong>aha-experience</strong>?</p>","","aha","html-keyboard-response","433","1185266","0.0-2.0-5.71","PG","1","pretest","true","4518715","54","../img/tt/1199tt.jpg","","6"
"null","<div style=""font-size:60px;""> </div>","","fixation","html-keyboard-response","434","1185470","0.0-2.0-0.72","PG","1","pretest","true","4518715","null","","",""
"null","../img/tt/1190tt.jpg","","mooney1","image-keyboard-response","435","1188480","0.0-2.0-1.72","PG","1","pretest","true","4518715","null","../img/tt/1190tt.jpg","",""
"1738","<p></p>","","recognized","html-keyboard-response","436","1190218","0.0-2.0-2.72","PG","1","pretest","true","4518715","78","../img/tt/1190tt.jpg","n",""
"null","../img/gs/1190gs.jpg","","solution","image-keyboard-response","437","1192230","0.0-2.0-3.72","PG","1","pretest","true","4518715","null","","",""
"null","../img/tt/1190tt.jpg","","mooney2","image-keyboard-response","438","1194239","0.0-2.0-4.72","PG","1","pretest","true","4518715","null","","",""
"2570","<p>How strong was your <strong>aha-experience</strong>?</p>","","aha","html-keyboard-response","439","1196810","0.0-2.0-5.72","PG","1","pretest","true","4518715","50","../img/tt/1190tt.jpg","","2"
"null","<div style=""font-size:60px;""> </div>","","fixation","html-keyboard-response","440","1197021","0.0-2.0-0.73","PG","1","pretest","true","4518715","null","","",""
"null","../img/tt/1147tt.jpg","","mooney1","image-keyboard-response","441","1200037","0.0-2.0-1.73","PG","1","pretest","true","4518715","null","../img/tt/1147tt.jpg","",""
"555","<p></p>","","recognized","html-keyboard-response","442","1200593","0.0-2.0-2.73","PG","1","pretest","true","4518715","89","../img/tt/1147tt.jpg","y",""
"null","../img/gs/1147gs.jpg","","solution","image-keyboard-response","443","1202607","0.0-2.0-3.73","PG","1","pretest","true","4518715","null","","",""
"null","../img/tt/1147tt.jpg","","mooney2","image-keyboard-response","444","1204611","0.0-2.0-4.73","PG","1","pretest","true","4518715","null","","",""
"989","<p>How strong was your <strong>aha-experience</strong>?</p>","","aha","html-keyboard-response","445","1205600","0.0-2.0-5.73","PG","1","pretest","true","4518715","51","../img/tt/1147tt.jpg","","3"
"null","<div style=""font-size:60px;""> </div>","","fixation","html-keyboard-response","446","1205804","0.0-2.0-0.74","PG","1","pretest","true","4518715","null","","",""
"null","../img/tt/123tt.jpg","","mooney1","image-keyboard-response","447","1208811","0.0-2.0-1.74","PG","1","pretest","true","4518715","null","../img/tt/123tt.jpg","",""
"1227","<p></p>","","recognized","html-keyboard-response","448","1210039","0.0-2.0-2.74","PG","1","pretest","true","4518715","78","../img/tt/123tt.jpg","n",""
"null","../img/gs/123gs.jpg","","solution","image-keyboard-response","449","1212041","0.0-2.0-3.74","PG","1","pretest","true","4518715","null","","",""
"null","../img/tt/123tt.jpg","","mooney2","image-keyboard-response","450","1214048","0.0-2.0-4.74","PG","1","pretest","true","4518715","null","","",""
"2811","<p>How strong was your <strong>aha-experience</strong>?</p>","","aha","html-keyboard-response","451","1216859","0.0-2.0-5.74","PG","1","pretest","true","4518715","53","../img/tt/123tt.jpg","","5"
"null","<div style=""font-size:60px;""> </div>","","fixation","html-keyboard-response","452","1217073","0.0-2.0-0.75","PG","1","pretest","true","4518715","null","","",""
"null","../img/tt/1089tt.jpg","","mooney1","image-keyboard-response","453","1220087","0.0-2.0-1.75","PG","1","pretest","true","4518715","null","../img/tt/1089tt.jpg","",""
"1269","<p></p>","","recognized","html-keyboard-response","454","1221356","0.0-2.0-2.75","PG","1","pretest","true","4518715","78","../img/tt/1089tt.jpg","n",""
"null","../img/gs/1089gs.jpg","","solution","image-keyboard-response","455","1223373","0.0-2.0-3.75","PG","1","pretest","true","4518715","null","","",""
"null","../img/tt/1089tt.jpg","","mooney2","image-keyboard-response","456","1225382","0.0-2.0-4.75","PG","1","pretest","true","4518715","null","","",""
"632","<p>How strong was your <strong>aha-experience</strong>?</p>","","aha","html-keyboard-response","457","1226015","0.0-2.0-5.75","PG","1","pretest","true","4518715","55","../img/tt/1089tt.jpg","","7"
"null","<div style=""font-size:60px;""> </div>","","fixation","html-keyboard-response","458","1226230","0.0-2.0-0.76","PG","1","pretest","true","4518715","null","","",""
"null","../img/tt/1139tt.jpg","","mooney1","image-keyboard-response","459","1229242","0.0-2.0-1.76","PG","1","pretest","true","4518715","null","../img/tt/1139tt.jpg","",""
"1529","<p></p>","","recognized","html-keyboard-response","460","1230772","0.0-2.0-2.76","PG","1","pretest","true","4518715","78","../img/tt/1139tt.jpg","n",""
"null","../img/gs/1139gs.jpg","","solution","image-keyboard-response","461","1232786","0.0-2.0-3.76","PG","1","pretest","true","4518715","null","","",""
"null","../img/tt/1139tt.jpg","","mooney2","image-keyboard-response","462","1234793","0.0-2.0-4.76","PG","1","pretest","true","4518715","null","","",""
"2314","<p>How strong was your <strong>aha-experience</strong>?</p>","","aha","html-keyboard-response","463","1237107","0.0-2.0-5.76","PG","1","pretest","true","4518715","50","../img/tt/1139tt.jpg","","2"
"null","<div style=""font-size:60px;""> </div>","","fixation","html-keyboard-response","464","1237322","0.0-2.0-0.77","PG","1","pretest","true","4518715","null","","",""
"null","../img/tt/1144tt.jpg","","mooney1","image-keyboard-response","465","1240331","0.0-2.0-1.77","PG","1","pretest","true","4518715","null","../img/tt/1144tt.jpg","",""
"5439","<p></p>","","recognized","html-keyboard-response","466","1245771","0.0-2.0-2.77","PG","1","pretest","true","4518715","78","../img/tt/1144tt.jpg","n",""
"null","../img/gs/1144gs.jpg","","solution","image-keyboard-response","467","1247783","0.0-2.0-3.77","PG","1","pretest","true","4518715","null","","",""
"null","../img/tt/1144tt.jpg","","mooney2","image-keyboard-response","468","1249784","0.0-2.0-4.77","PG","1","pretest","true","4518715","null","","",""
"1568","<p>How strong was your <strong>aha-experience</strong>?</p>","","aha","html-keyboard-response","469","1251352","0.0-2.0-5.77","PG","1","pretest","true","4518715","51","../img/tt/1144tt.jpg","","3"
"null","<div style=""font-size:60px;""> </div>","","fixation","html-keyboard-response","470","1251554","0.0-2.0-0.78","PG","1","pretest","true","4518715","null","","",""
"null","../img/tt/079tt.jpg","","mooney1","image-keyboard-response","471","1254566","0.0-2.0-1.78","PG","1","pretest","true","4518715","null","../img/tt/079tt.jpg","",""
"3504","<p></p>","","recognized","html-keyboard-response","472","1258070","0.0-2.0-2.78","PG","1","pretest","true","4518715","78","../img/tt/079tt.jpg","n",""
"null","../img/gs/079gs.jpg","","solution","image-keyboard-response","473","1260075","0.0-2.0-3.78","PG","1","pretest","true","4518715","null","","",""
"null","../img/tt/079tt.jpg","","mooney2","image-keyboard-response","474","1262087","0.0-2.0-4.78","PG","1","pretest","true","4518715","null","","",""
"601","<p>How strong was your <strong>aha-experience</strong>?</p>","","aha","html-keyboard-response","475","1262689","0.0-2.0-5.78","PG","1","pretest","true","4518715","49","../img/tt/079tt.jpg","","1"
"null","<div style=""font-size:60px;""> </div>","","fixation","html-keyboard-response","476","1262895","0.0-2.0-0.79","PG","1","pretest","true","4518715","null","","",""
"null","../img/tt/1209tt.jpg","","mooney1","image-keyboard-response","477","1265907","0.0-2.0-1.79","PG","1","pretest","true","4518715","null","../img/tt/1209tt.jpg","",""
"1231","<p></p>","","recognized","html-keyboard-response","478","1267139","0.0-2.0-2.79","PG","1","pretest","true","4518715","89","../img/tt/1209tt.jpg","y",""
"null","../img/gs/1209gs.jpg","","solution","image-keyboard-response","479","1269153","0.0-2.0-3.79","PG","1","pretest","true","4518715","null","","",""
"null","../img/tt/1209tt.jpg","","mooney2","image-keyboard-response","480","1271160","0.0-2.0-4.79","PG","1","pretest","true","4518715","null","","",""
"1396","<p>How strong was your <strong>aha-experience</strong>?</p>","","aha","html-keyboard-response","481","1272557","0.0-2.0-5.79","PG","1","pretest","true","4518715","52","../img/tt/1209tt.jpg","","4"
"null","<div style=""font-size:60px;""> </div>","","fixation","html-keyboard-response","482","1272761","0.0-2.0-0.80","PG","1","pretest","true","4518715","null","","",""
"null","../img/tt/1275tt.jpg","","mooney1","image-keyboard-response","483","1275774","0.0-2.0-1.80","PG","1","pretest","true","4518715","null","../img/tt/1275tt.jpg","",""
"2798","<p></p>","","recognized","html-keyboard-response","484","1278573","0.0-2.0-2.80","PG","1","pretest","true","4518715","78","../img/tt/1275tt.jpg","n",""
"null","../img/gs/1275gs.jpg","","solution","image-keyboard-response","485","1280589","0.0-2.0-3.80","PG","1","pretest","true","4518715","null","","",""
"null","../img/tt/1275tt.jpg","","mooney2","image-keyboard-response","486","1282595","0.0-2.0-4.80","PG","1","pretest","true","4518715","null","","",""
"583","<p>How strong was your <strong>aha-experience</strong>?</p>","","aha","html-keyboard-response","487","1283179","0.0-2.0-5.80","PG","1","pretest","true","4518715","49","../img/tt/1275tt.jpg","","1"
"null","<div style=""font-size:60px;""> </div>","","fixation","html-keyboard-response","488","1283391","0.0-2.0-0.81","PG","1","pretest","true","4518715","null","","",""
"null","../img/tt/043tt.jpg","","mooney1","image-keyboard-response","489","1286405","0.0-2.0-1.81","PG","1","pretest","true","4518715","null","../img/tt/043tt.jpg","",""
"2721","<p></p>","","recognized","html-keyboard-response","490","1289126","0.0-2.0-2.81","PG","1","pretest","true","4518715","78","../img/tt/043tt.jpg","n",""
"null","../img/gs/043gs.jpg","","solution","image-keyboard-response","491","1291138","0.0-2.0-3.81","PG","1","pretest","true","4518715","null","","",""
"null","../img/tt/043tt.jpg","","mooney2","image-keyboard-response","492","1293141","0.0-2.0-4.81","PG","1","pretest","true","4518715","null","","",""
"748","<p>How strong was your <strong>aha-experience</strong>?</p>","","aha","html-keyboard-response","493","1293890","0.0-2.0-5.81","PG","1","pretest","true","4518715","49","../img/tt/043tt.jpg","","1"
"null","<div style=""font-size:60px;""> </div>","","fixation","html-keyboard-response","494","1294104","0.0-2.0-0.82","PG","1","pretest","true","4518715","null","","",""
"null","../img/tt/1266tt.jpg","","mooney1","image-keyboard-response","495","1297118","0.0-2.0-1.82","PG","1","pretest","true","4518715","null","../img/tt/1266tt.jpg","",""
"1209","<p></p>","","recognized","html-keyboard-response","496","1298327","0.0-2.0-2.82","PG","1","pretest","true","4518715","78","../img/tt/1266tt.jpg","n",""
"null","../img/gs/1266gs.jpg","","solution","image-keyboard-response","497","1300331","0.0-2.0-3.82","PG","1","pretest","true","4518715","null","","",""
"null","../img/tt/1266tt.jpg","","mooney2","image-keyboard-response","498","1302337","0.0-2.0-4.82","PG","1","pretest","true","4518715","null","","",""
"1630","<p>How strong was your <strong>aha-experience</strong>?</p>","","aha","html-keyboard-response","499","1303967","0.0-2.0-5.82","PG","1","pretest","true","4518715","51","../img/tt/1266tt.jpg","","3"
"null","<div style=""font-size:60px;""> </div>","","fixation","html-keyboard-response","500","1304179","0.0-2.0-0.83","PG","1","pretest","true","4518715","null","","",""
"null","../img/tt/1253tt.jpg","","mooney1","image-keyboard-response","501","1307185","0.0-2.0-1.83","PG","1","pretest","true","4518715","null","../img/tt/1253tt.jpg","",""
"967","<p></p>","","recognized","html-keyboard-response","502","1308152","0.0-2.0-2.83","PG","1","pretest","true","4518715","89","../img/tt/1253tt.jpg","y",""
"null","../img/gs/1253gs.jpg","","solution","image-keyboard-response","503","1310166","0.0-2.0-3.83","PG","1","pretest","true","4518715","null","","",""
"null","../img/tt/1253tt.jpg","","mooney2","image-keyboard-response","504","1312169","0.0-2.0-4.83","PG","1","pretest","true","4518715","null","","",""
"1017","<p>How strong was your <strong>aha-experience</strong>?</p>","","aha","html-keyboard-response","505","1313187","0.0-2.0-5.83","PG","1","pretest","true","4518715","51","../img/tt/1253tt.jpg","","3"
"null","<div style=""font-size:60px;""> </div>","","fixation","html-keyboard-response","506","1313392","0.0-2.0-0.84","PG","1","pretest","true","4518715","null","","",""
"null","../img/tt/001tt.jpg","","mooney1","image-keyboard-response","507","1316403","0.0-2.0-1.84","PG","1","pretest","true","4518715","null","../img/tt/001tt.jpg","",""
"908","<p></p>","","recognized","html-keyboard-response","508","1317312","0.0-2.0-2.84","PG","1","pretest","true","4518715","78","../img/tt/001tt.jpg","n",""
"null","../img/gs/001gs.jpg","","solution","image-keyboard-response","509","1319318","0.0-2.0-3.84","PG","1","pretest","true","4518715","null","","",""
"null","../img/tt/001tt.jpg","","mooney2","image-keyboard-response","510","1321326","0.0-2.0-4.84","PG","1","pretest","true","4518715","null","","",""
"1400","<p>How strong was your <strong>aha-experience</strong>?</p>","","aha","html-keyboard-response","511","1322726","0.0-2.0-5.84","PG","1","pretest","true","4518715","49","../img/tt/001tt.jpg","","1"
"null","<div style=""font-size:60px;""> </div>","","fixation","html-keyboard-response","512","1322934","0.0-2.0-0.85","PG","1","pretest","true","4518715","null","","",""
"null","../img/tt/1238tt.jpg","","mooney1","image-keyboard-response","513","1325939","0.0-2.0-1.85","PG","1","pretest","true","4518715","null","../img/tt/1238tt.jpg","",""
"1125","<p></p>","","recognized","html-keyboard-response","514","1327065","0.0-2.0-2.85","PG","1","pretest","true","4518715","78","../img/tt/1238tt.jpg","n",""
"null","../img/gs/1238gs.jpg","","solution","image-keyboard-response","515","1329069","0.0-2.0-3.85","PG","1","pretest","true","4518715","null","","",""
"null","../img/tt/1238tt.jpg","","mooney2","image-keyboard-response","516","1331086","0.0-2.0-4.85","PG","1","pretest","true","4518715","null","","",""
"678","<p>How strong was your <strong>aha-experience</strong>?</p>","","aha","html-keyboard-response","517","1331764","0.0-2.0-5.85","PG","1","pretest","true","4518715","49","../img/tt/1238tt.jpg","","1"
"null","<div style=""font-size:60px;""> </div>","","fixation","html-keyboard-response","518","1331972","0.0-2.0-0.86","PG","1","pretest","true","4518715","null","","",""
"null","../img/tt/1220tt.jpg","","mooney1","image-keyboard-response","519","1334982","0.0-2.0-1.86","PG","1","pretest","true","4518715","null","../img/tt/1220tt.jpg","",""
"1615","<p></p>","","recognized","html-keyboard-response","520","1336600","0.0-2.0-2.86","PG","1","pretest","true","4518715","89","../img/tt/1220tt.jpg","y",""
"null","../img/gs/1220gs.jpg","","solution","image-keyboard-response","521","1338609","0.0-2.0-3.86","PG","1","pretest","true","4518715","null","","",""
"null","../img/tt/1220tt.jpg","","mooney2","image-keyboard-response","522","1340616","0.0-2.0-4.86","PG","1","pretest","true","4518715","null","","",""
"1124","<p>How strong was your <strong>aha-experience</strong>?</p>","","aha","html-keyboard-response","523","1341740","0.0-2.0-5.86","PG","1","pretest","true","4518715","50","../img/tt/1220tt.jpg","","2"
"null","<div style=""font-size:60px;""> </div>","","fixation","html-keyboard-response","524","1341949","0.0-2.0-0.87","PG","1","pretest","true","4518715","null","","",""
"null","../img/tt/1264tt.jpg","","mooney1","image-keyboard-response","525","1344950","0.0-2.0-1.87","PG","1","pretest","true","4518715","null","../img/tt/1264tt.jpg","",""
"5254","<p></p>","","recognized","html-keyboard-response","526","1350206","0.0-2.0-2.87","PG","1","pretest","true","4518715","78","../img/tt/1264tt.jpg","n",""
"null","../img/gs/1264gs.jpg","","solution","image-keyboard-response","527","1352218","0.0-2.0-3.87","PG","1","pretest","true","4518715","null","","",""
"null","../img/tt/1264tt.jpg","","mooney2","image-keyboard-response","528","1354235","0.0-2.0-4.87","PG","1","pretest","true","4518715","null","","",""
"3698","<p>How strong was your <strong>aha-experience</strong>?</p>","","aha","html-keyboard-response","529","1357933","0.0-2.0-5.87","PG","1","pretest","true","4518715","52","../img/tt/1264tt.jpg","","4"
"null","<div style=""font-size:60px;""> </div>","","fixation","html-keyboard-response","530","1358135","0.0-2.0-0.88","PG","1","pretest","true","4518715","null","","",""
"null","../img/tt/1057tt.jpg","","mooney1","image-keyboard-response","531","1361147","0.0-2.0-1.88","PG","1","pretest","true","4518715","null","../img/tt/1057tt.jpg","",""
"1473","<p></p>","","recognized","html-keyboard-response","532","1362620","0.0-2.0-2.88","PG","1","pretest","true","4518715","89","../img/tt/1057tt.jpg","y",""
"null","../img/gs/1057gs.jpg","","solution","image-keyboard-response","533","1364623","0.0-2.0-3.88","PG","1","pretest","true","4518715","null","","",""
"null","../img/tt/1057tt.jpg","","mooney2","image-keyboard-response","534","1366631","0.0-2.0-4.88","PG","1","pretest","true","4518715","null","","",""
"1507","<p>How strong was your <strong>aha-experience</strong>?</p>","","aha","html-keyboard-response","535","1368139","0.0-2.0-5.88","PG","1","pretest","true","4518715","55","../img/tt/1057tt.jpg","","7"
"null","<div style=""font-size:60px;""> </div>","","fixation","html-keyboard-response","536","1368350","0.0-2.0-0.89","PG","1","pretest","true","4518715","null","","",""
"null","../img/tt/1295tt.jpg","","mooney1","image-keyboard-response","537","1371362","0.0-2.0-1.89","PG","1","pretest","true","4518715","null","../img/tt/1295tt.jpg","",""
"2085","<p></p>","","recognized","html-keyboard-response","538","1373448","0.0-2.0-2.89","PG","1","pretest","true","4518715","89","../img/tt/1295tt.jpg","y",""
"null","../img/gs/1295gs.jpg","","solution","image-keyboard-response","539","1375451","0.0-2.0-3.89","PG","1","pretest","true","4518715","null","","",""
"null","../img/tt/1295tt.jpg","","mooney2","image-keyboard-response","540","1377452","0.0-2.0-4.89","PG","1","pretest","true","4518715","null","","",""
"597","<p>How strong was your <strong>aha-experience</strong>?</p>","","aha","html-keyboard-response","541","1378050","0.0-2.0-5.89","PG","1","pretest","true","4518715","50","../img/tt/1295tt.jpg","","2"
"null","<div style=""font-size:60px;""> </div>","","fixation","html-keyboard-response","542","1378266","0.0-2.0-0.90","PG","1","pretest","true","4518715","null","","",""
"null","../img/tt/1109tt.jpg","","mooney1","image-keyboard-response","543","1381278","0.0-2.0-1.90","PG","1","pretest","true","4518715","null","../img/tt/1109tt.jpg","",""
"1195","<p></p>","","recognized","html-keyboard-response","544","1382474","0.0-2.0-2.90","PG","1","pretest","true","4518715","78","../img/tt/1109tt.jpg","n",""
"null","../img/gs/1109gs.jpg","","solution","image-keyboard-response","545","1384480","0.0-2.0-3.90","PG","1","pretest","true","4518715","null","","",""
"null","../img/tt/1109tt.jpg","","mooney2","image-keyboard-response","546","1386485","0.0-2.0-4.90","PG","1","pretest","true","4518715","null","","",""
"977","<p>How strong was your <strong>aha-experience</strong>?</p>","","aha","html-keyboard-response","547","1387463","0.0-2.0-5.90","PG","1","pretest","true","4518715","50","../img/tt/1109tt.jpg","","2"
"null","<div style=""font-size:60px;""> </div>","","fixation","html-keyboard-response","548","1387664","0.0-2.0-0.91","PG","1","pretest","true","4518715","null","","",""
"null","../img/tt/1245tt.jpg","","mooney1","image-keyboard-response","549","1390671","0.0-2.0-1.91","PG","1","pretest","true","4518715","null","../img/tt/1245tt.jpg","",""
"4824","<p></p>","","recognized","html-keyboard-response","550","1395496","0.0-2.0-2.91","PG","1","pretest","true","4518715","78","../img/tt/1245tt.jpg","n",""
"null","../img/gs/1245gs.jpg","","solution","image-keyboard-response","551","1397503","0.0-2.0-3.91","PG","1","pretest","true","4518715","null","","",""
"null","../img/tt/1245tt.jpg","","mooney2","image-keyboard-response","552","1399511","0.0-2.0-4.91","PG","1","pretest","true","4518715","null","","",""
"2457","<p>How strong was your <strong>aha-experience</strong>?</p>","","aha","html-keyboard-response","553","1401968","0.0-2.0-5.91","PG","1","pretest","true","4518715","54","../img/tt/1245tt.jpg","","6"
"null","<div style=""font-size:60px;""> </div>","","fixation","html-keyboard-response","554","1402175","0.0-2.0-0.92","PG","1","pretest","true","4518715","null","","",""
"null","../img/tt/104tt.jpg","","mooney1","image-keyboard-response","555","1405187","0.0-2.0-1.92","PG","1","pretest","true","4518715","null","../img/tt/104tt.jpg","",""
"1799","<p></p>","","recognized","html-keyboard-response","556","1406987","0.0-2.0-2.92","PG","1","pretest","true","4518715","89","../img/tt/104tt.jpg","y",""
"null","../img/gs/104gs.jpg","","solution","image-keyboard-response","557","1408990","0.0-2.0-3.92","PG","1","pretest","true","4518715","null","","",""
"null","../img/tt/104tt.jpg","","mooney2","image-keyboard-response","558","1410991","0.0-2.0-4.92","PG","1","pretest","true","4518715","null","","",""
"138","<p>How strong was your <strong>aha-experience</strong>?</p>","","aha","html-keyboard-response","559","1411131","0.0-2.0-5.92","PG","1","pretest","true","4518715","52","../img/tt/104tt.jpg","","4"
"null","<div style=""font-size:60px;""> </div>","","fixation","html-keyboard-response","560","1411331","0.0-2.0-0.93","PG","1","pretest","true","4518715","null","","",""
"null","../img/tt/1028tt.jpg","","mooney1","image-keyboard-response","561","1414346","0.0-2.0-1.93","PG","1","pretest","true","4518715","null","../img/tt/1028tt.jpg","",""
"1095","<p></p>","","recognized","html-keyboard-response","562","1415441","0.0-2.0-2.93","PG","1","pretest","true","4518715","78","../img/tt/1028tt.jpg","n",""
"null","../img/gs/1028gs.jpg","","solution","image-keyboard-response","563","1417442","0.0-2.0-3.93","PG","1","pretest","true","4518715","null","","",""
"null","../img/tt/1028tt.jpg","","mooney2","image-keyboard-response","564","1419458","0.0-2.0-4.93","PG","1","pretest","true","4518715","null","","",""
"817","<p>How strong was your <strong>aha-experience</strong>?</p>","","aha","html-keyboard-response","565","1420277","0.0-2.0-5.93","PG","1","pretest","true","4518715","50","../img/tt/1028tt.jpg","","2"
"null","<div style=""font-size:60px;""> </div>","","fixation","html-keyboard-response","566","1420483","0.0-2.0-0.94","PG","1","pretest","true","4518715","null","","",""
